trial,primeIter,primeCorrect,primeTime,primeDepth,stimDepth,extraDepth,driveFrames,nearToFar,diopters,direction,size,intensity,extraLatency,mainLatency,totalLatency,responseTime,correct,caseLabel,caseTrial,trialsAtStep,stepCorrect,expected,w,direction,stepsize,stepChange
1,4,True,0.9477159000234678,800.0,50.0,800.0,8,False,2,start,0.16666666666666666,60,0.16161329997703433,1.0148707000771537,1.176484000054188,0.038442600052803755,True,radial-check,1,1,1,0.625,0.5,start,16,0
2,2,True,1.2933578999945894,800.0,50.0,33.0,8,False,2,start,0.16666666666666666,60,0.14467209996655583,1.0126090000849217,1.1572811000514776,0.13493070006370544,True,orig-stim,1,1,1,0.625,0.5,start,16,0
3,1,True,2.325795999960974,800.0,100.0,50.0,0,False,1,start,0.16666666666666666,60,0,0.9811807000078261,0.9811807000078261,0.30549110006541014,True,near-rnd2,1,1,1,0.625,0.5,start,16,0
4,2,True,2.4852194000268355,800.0,50.0,800.0,8,False,2,start,0.16666666666666666,60,0.1503470999887213,1.010362399974838,1.1607094999635592,0.4247120999498293,True,radial-star,1,1,1,0.625,0.5,start,16,0
5,3,True,1.4596835999982432,800.0,50.0,100.0,8,False,2,start,0.16666666666666666,60,0.15006220003124326,1.010570100042969,1.1606323000742123,0.4515400000382215,True,grating-gauss,1,1,1,0.625,0.5,start,16,0
6,3,True,1.0359968000557274,800.0,50.0,50.0,8,False,2,start,0.16666666666666666,60,0.1454288000240922,1.0172538999468088,1.162682699970901,0.47476379992440343,True,grating-circ,1,1,1,0.625,0.5,start,16,0
7,1,True,3.4623891999945045,800.0,33.0,50.0,0,False,3,start,0.16666666666666666,60,0,0.9679391999961808,0.9679391999961808,0.6762014999985695,True,near-rnd3,1,1,1,0.625,0.5,start,16,0
8,3,True,1.1467825999716297,800.0,50.0,800.0,8,False,2,start,0.16666666666666666,60,0.15809679997619241,1.0181581999640912,1.1762549999402836,0.3701293000485748,True,radial-anulus,1,1,1,0.625,0.5,start,16,0
9,2,True,2.655308600049466,800.0,800.0,50.0,0,False,0,start,0.16666666666666666,60,0,0.9862129000248387,0.9862129000248387,0.5328644999535754,True,near-rndm,1,1,1,0.625,0.5,start,16,0
10,2,True,1.4721535999560729,800.0,50.0,33.0,0,False,2,start,0.16666666666666666,60,0,0.9963332999031991,0.9963332999031991,0.43382449995260686,True,near-000,1,1,1,0.625,0.5,start,16,0
11,3,True,1.7844790000235662,800.0,100.0,50.0,0,False,1,start,0.16666666666666666,44,0,0.7523747000377625,0.7523747000377625,0.501256600022316,True,near-rnd2,2,1,1,0.625,1.0,start,16,0
12,4,True,1.4638045000610873,800.0,50.0,800.0,8,False,2,start,0.16666666666666666,44,0.15956820000428706,0.7701895999489352,0.9297577999532223,0.41958340001292527,True,radial-star,2,1,1,0.625,1.0,start,16,0
13,1,True,4.368097399943508,800.0,50.0,800.0,8,False,2,start,0.16666666666666666,44,0.1373689000029117,0.733563799993135,0.8709326999960467,0.4163234999869019,True,radial-anulus,2,1,1,0.625,1.0,start,16,0
14,4,True,1.6936796999070793,800.0,33.0,50.0,0,False,3,start,0.16666666666666666,44,0,0.7369364999467507,0.7369364999467507,0.6942145000211895,True,near-rnd3,2,1,1,0.625,1.0,start,16,0
15,2,True,1.61099049996119,800.0,50.0,33.0,0,False,2,start,0.16666666666666666,44,0,0.7469625000376254,0.7469625000376254,0.5088598999427631,True,near-000,2,1,1,0.625,1.0,start,16,0
16,3,True,1.3804474999196827,800.0,50.0,100.0,8,False,2,start,0.16666666666666666,44,0.14779399998951703,0.7516197999939322,0.8994137999834493,0.42899380007293075,True,grating-gauss,2,1,1,0.625,1.0,start,16,0
17,1,True,2.724091300042346,800.0,50.0,800.0,8,False,2,start,0.16666666666666666,44,0.13581779995001853,0.7332067999523133,0.8690245999023318,0.3930815999628976,True,radial-check,2,1,1,0.625,1.0,start,16,0
18,2,True,1.8117206000024453,800.0,800.0,50.0,0,False,0,start,0.16666666666666666,44,0,0.7263702999334782,0.7263702999334782,0.526649700012058,True,near-rndm,2,1,1,0.625,1.0,start,16,0
19,1,True,2.5569685000227764,800.0,50.0,33.0,8,False,2,start,0.16666666666666666,44,0.136927800020203,0.7368892000522465,0.8738170000724494,0.49880990001838654,True,orig-stim,2,1,1,0.625,1.0,start,16,0
20,3,True,2.350289999973029,800.0,50.0,50.0,8,False,2,start,0.16666666666666666,44,0.15784230001736432,0.749716299935244,0.9075585999526083,0.37122530001215637,True,grating-circ,2,1,1,0.625,1.0,start,16,0
21,2,True,1.343305699992925,800.0,33.0,50.0,0,False,3,start,0.16666666666666666,28,0,0.47042220004368573,0.47042220004368573,1.1015315999975428,False,near-rnd3,3,1,0,0.625,1.0,start,16,0
22,2,True,3.4129904999863356,800.0,800.0,50.0,0,False,0,start,0.16666666666666666,28,0,0.4701593000208959,0.4701593000208959,0.541998100001365,True,near-rndm,3,1,1,0.625,1.0,start,16,0
23,2,True,1.4874556999420747,800.0,50.0,800.0,8,False,2,start,0.16666666666666666,28,0.14129469997715205,0.5058878000127152,0.6471824999898672,0.4397354000248015,True,radial-star,3,1,1,0.625,1.0,start,16,0
24,1,True,2.0407274999888614,800.0,100.0,50.0,0,False,1,start,0.16666666666666666,28,0,0.4718918000580743,0.4718918000580743,0.9060638000955805,True,near-rnd2,3,1,1,0.625,1.0,start,16,0
25,1,True,4.084868400008418,800.0,50.0,33.0,0,False,2,start,0.16666666666666666,28,0,0.4685926999663934,0.4685926999663934,0.9532528000418097,False,near-000,3,1,0,0.625,1.0,start,16,0
26,1,True,1.5850326999789104,800.0,50.0,800.0,8,False,2,start,0.16666666666666666,28,0.13632779999170452,0.47826680005528033,0.6145946000469849,0.42248409998137504,True,radial-check,3,1,1,0.625,1.0,start,16,0
27,5,True,1.2381999999051914,800.0,50.0,800.0,8,False,2,start,0.16666666666666666,28,0.16322260000742972,0.9667109999572858,1.1299335999647155,0.3442299000453204,True,radial-anulus,3,1,1,0.625,1.0,start,16,0
28,4,True,1.7398123999591917,800.0,50.0,50.0,8,False,2,start,0.16666666666666666,28,0.16327579994685948,1.0977352000772953,1.2610110000241548,0.4121824000030756,True,grating-circ,3,1,1,0.625,1.0,start,16,0
29,2,True,1.1501916999695823,800.0,50.0,33.0,8,False,2,start,0.16666666666666666,28,0.14903059997595847,0.4924973000306636,0.6415279000066221,0.5601076000602916,True,orig-stim,3,1,1,0.625,1.0,start,16,0
30,3,True,1.580716999946162,800.0,50.0,100.0,8,False,2,start,0.16666666666666666,28,0.145335300010629,0.501825499930419,0.647160799941048,0.6417518999660388,True,grating-gauss,3,1,1,0.625,1.0,start,16,0
31,2,True,2.04176870000083,800.0,50.0,33.0,0,False,2,up,0.16666666666666666,36,0,0.6137730000773445,0.6137730000773445,0.5635614000493661,True,near-000,4,1,1,0.625,0.5,up,8,0
32,3,True,1.9127023000037298,800.0,50.0,800.0,8,False,2,start,0.16666666666666666,12,0.14393840008415282,0.24174339999444783,0.38568180007860065,4.381200199946761,True,radial-star,4,1,1,0.625,0.5,start,16,0
33,3,True,1.501318100024946,800.0,100.0,50.0,0,False,1,start,0.16666666666666666,12,0,0.23034540005028248,0.23034540005028248,1.0891698999330401,True,near-rnd2,4,1,1,0.625,0.5,start,16,0
34,4,True,1.844146899995394,800.0,50.0,100.0,8,False,2,start,0.16666666666666666,12,0.15775390004273504,0.25202939996961504,0.4097833000123501,1.0702766999602318,True,grating-gauss,4,1,1,0.625,0.5,start,16,0
35,1,True,2.7970032000448555,800.0,50.0,50.0,8,False,2,start,0.16666666666666666,12,0.14045040006749332,0.22376059996895492,0.36421100003644824,0.8244226999813691,False,grating-circ,4,1,0,0.625,0.5,start,16,0
36,2,True,1.219044900033623,800.0,50.0,33.0,8,False,2,start,0.16666666666666666,12,0.13995240000076592,0.23583429993595928,0.3757866999367252,0.9034370000008494,False,orig-stim,4,1,0,0.625,0.5,start,16,0
37,1,True,4.764982299995609,800.0,50.0,800.0,8,False,2,start,0.16666666666666666,12,0.1402044000569731,0.2207104000262916,0.3609148000832647,0.9556608999846503,False,radial-anulus,4,1,0,0.625,0.5,start,16,0
38,2,True,1.315623400034383,800.0,800.0,50.0,0,False,0,start,0.16666666666666666,12,0,0.21770249994006008,0.21770249994006008,0.7233492999803275,True,near-rndm,4,1,1,0.625,0.5,start,16,0
39,2,True,1.068093000096269,800.0,33.0,50.0,0,False,3,up,0.16666666666666666,36,0,0.6391355000669137,0.6391355000669137,1.2161231000209227,False,near-rnd3,4,1,0,0.625,0.5,up,8,0
40,2,True,3.5118342000059783,800.0,50.0,800.0,8,False,2,start,0.16666666666666666,12,0.14631169999483973,0.2422783001093194,0.3885900001041591,0.6270393000449985,True,radial-check,4,1,1,0.625,0.5,start,16,0
41,2,True,1.4271202000090852,800.0,50.0,33.0,8,False,2,up,0.16666666666666666,20,0.14880819991230965,0.3647963999537751,0.5136045998660848,0.5617034999886528,True,orig-stim,5,1,1,0.625,0.5,up,8,0
42,2,True,1.249978999956511,800.0,50.0,100.0,8,False,2,start,0.16666666666666666,0,0.14443139999639243,0.04049570008646697,0.1849271000828594,0.9895465000299737,False,grating-gauss,5,1,0,0.625,0.5,start,16,0
43,4,True,1.3686933999415487,800.0,33.0,50.0,0,False,3,up,0.16666666666666666,36,0,0.6034157000249252,0.6034157000249252,0.594714600010775,True,near-rnd3,5,2,1,1.25,1,up,8,0
44,2,True,1.630579899996519,800.0,800.0,50.0,0,False,0,start,0.16666666666666666,0,0,0.020415700040757656,0.020415700040757656,1.0244701999472454,False,near-rndm,5,1,0,0.625,0.5,start,16,0
45,2,True,2.343725200043991,800.0,50.0,800.0,8,False,2,start,0.16666666666666666,0,0.1428147000260651,0.04040800000075251,0.18322270002681762,0.7668660999042913,False,radial-star,5,1,0,0.625,0.5,start,16,0
46,1,True,2.3717261999845505,800.0,100.0,50.0,0,False,1,start,0.16666666666666666,0,0,0.024965299991890788,0.024965299991890788,1.387655399972573,False,near-rnd2,5,1,0,0.625,0.5,start,16,0
47,4,True,2.40650220005773,800.0,50.0,800.0,8,False,2,up,0.16666666666666666,20,0.16027560003567487,0.3919768000487238,0.5522524000843987,0.579153599916026,True,radial-anulus,5,1,1,0.625,0.5,up,8,0
48,1,True,8.326128999935463,800.0,50.0,800.0,8,False,2,start,0.16666666666666666,0,0.1355312999803573,0.026564499945379794,0.16209579992573708,0.9324378999881446,False,radial-check,5,1,0,0.625,0.5,start,16,0
49,2,True,2.3015740999253467,800.0,50.0,33.0,0,False,2,up,0.16666666666666666,36,0,0.6201385000022128,0.6201385000022128,0.3608668999513611,True,near-000,5,2,2,1.25,1,up,8,0
50,2,True,3.778989000013098,800.0,50.0,50.0,8,False,2,up,0.16666666666666666,20,0.14292370004113764,0.37345579999964684,0.5163795000407845,0.6321503000799567,True,grating-circ,5,1,1,0.625,0.5,up,8,0
51,3,True,0.9357815999537706,800.0,50.0,50.0,8,False,2,up,0.16666666666666666,20,0.1468180000083521,0.3751752000534907,0.5219932000618428,0.7001521000638604,True,grating-circ,6,2,2,1.25,1,up,8,0
52,2,True,2.4994409000501037,800.0,33.0,50.0,0,False,3,up,0.16666666666666666,36,0,0.6847919001011178,0.6847919001011178,0.8488347999518737,True,near-rnd3,6,3,2,1.875,1,up,8,0
53,1,True,1.499962400062941,800.0,50.0,33.0,0,False,2,up,0.16666666666666666,36,0,0.5928189000114799,0.5928189000114799,0.7113683000206947,True,near-000,6,3,3,1.875,1,up,8,0
54,2,True,1.3944006999954581,800.0,800.0,50.0,0,False,0,up,0.16666666666666666,8,0,0.15093020000495017,0.15093020000495017,2.1132364000659436,True,near-rndm,6,1,1,0.625,0.5,up,8,0
55,1,True,4.676113399909809,800.0,50.0,33.0,8,False,2,up,0.16666666666666666,20,0.13924269995186478,0.3513224000344053,0.49056509998627007,0.6789566000225022,True,orig-stim,6,2,2,1.25,1,up,8,0
56,2,True,1.1029281000373885,800.0,100.0,50.0,0,False,1,up,0.16666666666666666,8,0,0.16753129998687655,0.16753129998687655,1.1271844999864697,False,near-rnd2,6,1,0,0.625,0.5,up,8,0
57,4,True,1.014962000073865,800.0,50.0,800.0,8,False,2,up,0.16666666666666666,8,0.147372999927029,0.19681260001379997,0.344185599940829,1.0692137000150979,False,radial-check,6,1,0,0.625,0.5,up,8,0
58,1,True,1.5148335000267252,800.0,50.0,800.0,8,False,2,up,0.16666666666666666,8,0.1379078000318259,0.16199839999899268,0.2999062000308186,3.0413861999986693,False,radial-star,6,1,0,0.625,0.5,up,8,0
59,1,True,1.8943601000355557,800.0,50.0,800.0,8,False,2,up,0.16666666666666666,20,0.13578370003961027,0.5392992000561208,0.675082900095731,0.6941627999767661,True,radial-anulus,6,2,2,1.25,1,up,8,0
60,2,True,1.2030430999584496,800.0,50.0,100.0,8,False,2,up,0.16666666666666666,8,0.1405879999510944,0.17904889991041273,0.3196368998615071,1.5104083999758586,False,grating-gauss,6,1,0,0.625,0.5,up,8,0
61,2,True,1.0859242000151426,800.0,33.0,50.0,0,False,3,up,0.16666666666666666,36,0,0.6014587000245228,0.6014587000245228,0.8416999999899417,False,near-rnd3,7,4,2,2.5,1,up,8,0
62,2,True,1.5450112000107765,800.0,50.0,50.0,8,False,2,up,0.16666666666666666,20,0.1517574000172317,0.36354089993983507,0.5152982999570668,0.5497089000418782,True,grating-circ,7,3,3,1.875,1,up,8,0
63,4,True,1.3135853999992833,800.0,50.0,800.0,8,False,2,up,0.16666666666666666,20,0.1496665000449866,0.7805475000059232,0.9302140000509098,0.42470940004568547,True,radial-anulus,7,3,3,1.875,1,up,8,0
64,1,True,3.734013899927959,800.0,50.0,100.0,8,False,2,up,0.16666666666666666,8,0.1340842000208795,0.61918959999457,0.7532738000154495,0.3616099999053404,True,grating-gauss,7,2,1,1.25,1,up,8,0
65,4,True,1.1584118999307975,800.0,100.0,50.0,0,False,1,up,0.16666666666666666,8,0,0.17618169996421784,0.17618169996421784,0.8456786000169814,False,near-rnd2,7,2,0,1.25,1,up,8,0
66,1,True,1.907875300035812,800.0,50.0,800.0,8,False,2,up,0.16666666666666666,8,0.13866920000873506,0.1574009999167174,0.29607019992545247,0.8631444000639021,True,radial-star,7,2,1,1.25,1,up,8,0
67,1,True,1.5094897000817582,800.0,800.0,50.0,0,False,0,up,0.16666666666666666,8,0,0.14129149995278567,0.14129149995278567,1.1262937999563292,False,near-rndm,7,2,1,1.25,1,up,8,0
68,4,True,0.8913215999491513,800.0,50.0,33.0,8,False,2,up,0.16666666666666666,20,0.16126790002454072,0.3805302999680862,0.5417981999926269,0.5363016999326646,True,orig-stim,7,3,3,1.875,1,up,8,0
69,1,True,4.1500920000253245,800.0,50.0,33.0,0,False,2,down,0.16666666666666666,32,0,0.5326654000673443,0.5326654000673443,0.8389578000642359,False,near-000,7,1,0,0.625,1,down,4,0
70,1,True,1.0454476999584585,800.0,50.0,800.0,8,False,2,up,0.16666666666666666,8,0.13365780003368855,0.5903642999473959,0.7240220999810845,0.3321248999563977,True,radial-check,7,2,1,1.25,1,up,8,0
71,4,True,1.521616299985908,800.0,50.0,100.0,8,False,2,up,0.16666666666666666,8,0.16456960001960397,0.1983425000216812,0.36291210004128516,1.1584806999890134,False,grating-gauss,8,3,1,1.875,1,up,8,0
72,1,True,1.9386838999344036,800.0,800.0,50.0,0,False,0,up,0.16666666666666666,8,0,0.1460870000300929,0.1460870000300929,0.9627542999805883,False,near-rndm,8,3,1,1.875,1,up,8,0
73,4,True,2.997130500036292,800.0,50.0,800.0,8,False,2,down,0.16666666666666666,16,0.1546747999964282,0.3077685000607744,0.4624433000572026,0.6263804000336677,True,radial-anulus,8,1,1,0.625,1,down,4,0
74,2,True,2.0154933999292552,800.0,50.0,33.0,0,False,2,down,0.16666666666666666,32,0,0.5454669999890029,0.5454669999890029,1.2627063000109047,True,near-000,8,2,1,1.25,1,down,4,0
75,2,True,1.7860654999967664,800.0,33.0,50.0,0,False,3,up,0.16666666666666666,36,0,0.5952095999382436,0.5952095999382436,0.6344892999622971,True,near-rnd3,8,5,3,3.125,1,up,8,0
76,1,True,1.9724707000423223,800.0,50.0,33.0,8,False,2,down,0.16666666666666666,16,0.13598979997914284,0.28522189997602254,0.4212116999551654,0.8237416000338271,False,orig-stim,8,1,0,0.625,1,down,4,0
77,1,True,2.153664299985394,800.0,50.0,800.0,8,False,2,up,0.16666666666666666,8,0.46575770003255457,0.15573110000696033,0.6214888000395149,0.7038339000428095,True,radial-star,8,3,2,1.875,1,up,8,0
78,4,True,1.2574462000047788,800.0,50.0,50.0,8,False,2,down,0.16666666666666666,16,0.1515903000254184,0.32463259994983673,0.47622289997525513,0.693368999985978,True,grating-circ,8,1,1,0.625,1,down,4,0
79,1,True,1.6685064999619499,800.0,100.0,50.0,0,False,1,up,0.16666666666666666,16,0,0.2838229000335559,0.2838229000335559,1.033574500004761,False,near-rnd2,8,1,0,0.625,1,up,8,0
80,1,True,1.1361785000190139,800.0,50.0,800.0,8,False,2,up,0.16666666666666666,8,0.1410624000709504,0.15894840005785227,0.30001080012880266,0.6711819999618456,True,radial-check,8,3,2,1.875,1,up,8,0
81,1,True,3.052781300037168,800.0,50.0,33.0,0,False,2,down,0.16666666666666666,32,0,0.5295678999973461,0.5295678999973461,0.5157451999839395,True,near-000,9,3,2,1.875,1,down,4,0
82,1,True,1.369799500098452,800.0,50.0,800.0,8,False,2,down,0.16666666666666666,16,0.13826129992958158,0.28021400002762675,0.41847529995720834,0.6273169000633061,True,radial-anulus,9,2,2,1.25,1,down,4,0
83,4,True,1.2342892000451684,800.0,33.0,50.0,0,False,3,up,0.16666666666666666,36,0,0.6112281000241637,0.6112281000241637,0.6096245999215171,True,near-rnd3,9,6,4,3.75,1,up,8,0
84,3,True,3.649350899970159,800.0,50.0,33.0,8,False,2,down,0.16666666666666666,16,0.1484861000208184,0.3062404999509454,0.4547265999717638,0.617541000014171,False,orig-stim,9,2,0,1.25,1,down,4,0
85,1,True,2.679827500018291,800.0,800.0,50.0,0,False,0,up,0.16666666666666666,8,0,0.14368579990696162,0.14368579990696162,0.875125200022012,False,near-rndm,9,4,1,2.5,1,up,8,0
86,4,True,1.5175929000834003,800.0,50.0,800.0,8,False,2,up,0.16666666666666666,8,0.15985319996252656,0.19050399994011968,0.35035719990264624,0.9924055999144912,False,radial-check,9,4,2,2.5,1,up,8,0
87,4,True,1.805556100094691,800.0,50.0,100.0,8,False,2,up,0.16666666666666666,8,0.15023090003523976,0.19974310009274632,0.3499740001279861,0.9246071999659762,False,grating-gauss,9,4,1,2.5,1,up,8,0
88,1,True,2.1502176999347284,800.0,100.0,50.0,0,False,1,up,0.16666666666666666,16,0,0.27757650008425117,0.27757650008425117,0.7829130000900477,False,near-rnd2,9,2,0,1.25,1,up,8,0
89,2,True,1.7220455999486148,800.0,50.0,50.0,8,False,2,down,0.16666666666666666,16,0.15195239998865873,0.30541490006726235,0.4573673000559211,0.8679545000195503,False,grating-circ,9,2,1,1.25,1,down,4,0
90,2,True,2.4150265000062063,800.0,50.0,800.0,8,False,2,up,0.16666666666666666,8,0.1469759999308735,0.18108590005431324,0.32806189998518676,1.973314799950458,True,radial-star,9,4,3,2.5,1,up,8,0
91,2,True,1.4188012999948114,800.0,50.0,100.0,8,False,2,up,0.16666666666666666,16,0.31718700006604195,0.305143199977465,0.6223302000435069,0.35069560003466904,True,grating-gauss,10,1,1,0.625,1,up,8,0
92,1,True,3.567684100009501,800.0,100.0,50.0,0,False,1,up,0.16666666666666666,24,0,0.7741592000238597,0.7741592000238597,0.19738400005735457,True,near-rnd2,10,1,1,0.625,1,up,8,0
93,1,True,2.0367258000187576,800.0,50.0,33.0,8,False,2,up,0.16666666666666666,18,0.1408183000748977,0.3206827000249177,0.46150100009981543,0.5828174999915063,True,orig-stim,10,1,1,0.625,1,up,2,0
94,4,True,2.5797287001041695,800.0,800.0,50.0,0,False,0,up,0.16666666666666666,16,0,0.29195050010457635,0.29195050010457635,0.713451600051485,True,near-rndm,10,1,1,0.625,1,up,8,0
95,2,True,1.8085731000173837,800.0,50.0,50.0,8,False,2,down,0.16666666666666666,16,0.1511739999987185,0.3092913000145927,0.4604653000133112,0.73593660001643,True,grating-circ,10,3,2,1.875,1,down,4,0
96,4,True,1.0568815999431536,800.0,33.0,50.0,0,False,3,up,0.16666666666666666,36,0,0.6146465999772772,0.6146465999772772,0.6220144000835717,False,near-rnd3,10,7,4,4.375,1,up,8,0
97,2,True,3.814823399996385,800.0,50.0,800.0,8,False,2,up,0.16666666666666666,8,0.14752870006486773,0.1791276999283582,0.32665639999322593,0.8777562000323087,False,radial-check,10,5,2,3.125,1,up,8,0
98,2,True,1.1462505999952555,800.0,50.0,800.0,8,False,2,up,0.16666666666666666,8,0.14769050001632422,0.1841370000038296,0.3318275000201538,0.853888800018467,False,radial-star,10,5,3,3.125,1,up,8,0
99,4,True,1.2435719000641257,800.0,50.0,33.0,0,False,2,down,0.16666666666666666,32,0,0.5720061999745667,0.5720061999745667,0.6562739999499172,True,near-000,10,4,3,2.5,1,down,4,0
100,1,True,1.3338753000134602,800.0,50.0,800.0,8,False,2,down,0.16666666666666666,16,0.13876610004808754,0.28603339998517185,0.4247995000332594,0.8962265000445768,False,radial-anulus,10,3,2,1.875,1,down,4,0
101,2,True,1.2147836999502033,800.0,33.0,50.0,0,False,3,up,0.16666666666666666,36,0,0.5963027999969199,0.5963027999969199,0.6126433999743313,False,near-rnd3,11,8,4,5.0,1,up,8,0
102,1,True,5.070543900015764,800.0,50.0,800.0,8,False,2,up,0.16666666666666666,16,0.13770600000862032,0.2920315000228584,0.4297375000314787,0.8123979000374675,False,radial-check,11,1,0,0.625,1,up,8,0
103,4,True,2.02458970004227,800.0,50.0,800.0,8,False,2,down,0.16666666666666666,16,0.15115779999177903,0.3081657000584528,0.4593235000502318,0.5769293999765068,True,radial-anulus,11,4,3,2.5,1,down,4,0
104,1,True,2.615851999958977,800.0,800.0,50.0,0,False,0,up,0.16666666666666666,16,0,0.27546809997875243,0.27546809997875243,1.2990420999703929,True,near-rndm,11,2,2,1.25,1,up,8,0
105,3,True,0.9581331999506801,800.0,50.0,33.0,8,False,2,up,0.16666666666666666,18,0.14996820001397282,0.34953779994975775,0.4995059999637306,0.9146944000385702,False,orig-stim,11,2,1,1.25,2,up,2,0
106,2,True,1.2090993999736384,800.0,50.0,33.0,0,False,2,down,0.16666666666666666,32,0,0.5498979000840336,0.5498979000840336,0.632087100064382,False,near-000,11,5,3,3.125,1,down,4,0
107,2,True,1.7186678999569267,800.0,50.0,50.0,8,False,2,down,0.16666666666666666,16,0.14496150007471442,0.30199059995356947,0.4469521000282839,0.8357353999745101,False,grating-circ,11,4,2,2.5,1,down,4,0
108,1,True,2.2140843000961468,800.0,100.0,50.0,0,False,1,up,0.16666666666666666,24,0,0.406708599999547,0.406708599999547,0.7202859000535682,True,near-rnd2,11,2,2,1.25,1,up,8,0
109,2,True,1.1633941000327468,800.0,50.0,800.0,8,False,2,up,0.16666666666666666,8,0.15249769994989038,0.1766515999333933,0.3291492998832837,0.8196138000348583,False,radial-star,11,6,3,3.75,1,up,8,0
110,2,True,1.8729641999816522,800.0,50.0,100.0,8,False,2,up,0.16666666666666666,16,0.14892379997763783,0.7633993000490591,0.9123231000266969,0.41647039994131774,True,grating-gauss,11,2,2,1.25,1,up,8,0
111,2,True,1.4594587999163195,800.0,50.0,33.0,8,False,2,up,0.16666666666666666,18,0.6388463999610394,0.3362940000370145,0.9751403999980539,0.6942316999193281,True,orig-stim,12,3,2,1.875,2,up,2,0
112,2,True,1.4109993999591097,800.0,50.0,33.0,0,False,2,down,0.16666666666666666,32,0,0.554286599974148,0.554286599974148,0.4977105000289157,True,near-000,12,6,4,3.75,1,down,4,0
113,3,True,4.590579300071113,800.0,100.0,50.0,0,False,1,up,0.16666666666666666,24,0,0.43267820007167757,0.43267820007167757,0.6353839000221342,True,near-rnd2,12,3,3,1.875,1,up,8,0
114,2,True,17.551171600003727,800.0,50.0,800.0,8,False,2,up,0.16666666666666666,16,0.14390889997594059,0.30958429991733283,0.4534931998932734,0.6323495999677107,True,radial-check,12,2,1,1.25,1,up,8,0
115,1,True,2.656469500041567,800.0,50.0,100.0,8,False,2,up,0.16666666666666666,16,0.4624449999537319,0.28262099996209145,0.7450659999158233,0.34778430010192096,True,grating-gauss,12,3,3,1.875,1,up,8,0
116,2,True,1.261580300051719,800.0,800.0,50.0,0,False,0,up,0.16666666666666666,16,0,0.28283240005839616,0.28283240005839616,0.6697735000634566,True,near-rndm,12,3,3,1.875,1,up,8,0
117,3,True,1.3455630999524146,800.0,50.0,50.0,8,False,2,down,0.16666666666666666,16,0.15448950009886175,0.318183199968189,0.47267270006705076,0.8617938000243157,True,grating-circ,12,5,3,3.125,1,down,4,0
118,2,True,1.1704033999703825,800.0,33.0,50.0,0,False,3,up,0.16666666666666666,36,0,0.5948775000870228,0.5948775000870228,1.2887427000096068,True,near-rnd3,12,9,5,5.625,1,up,8,1
119,2,True,1.7656933999387547,800.0,50.0,800.0,8,False,2,up,0.16666666666666666,8,0.1436428000451997,0.17568430001847446,0.31932710006367415,0.7134960000403225,False,radial-star,12,7,3,4.375,1,up,8,0
120,1,True,1.2673578999238089,800.0,50.0,800.0,8,False,2,down,0.16666666666666666,16,0.13647000002674758,0.6268217000178993,0.7632917000446469,0.35338439990300685,True,radial-anulus,12,5,4,3.125,1,down,4,0
121,2,True,2.096465800073929,800.0,100.0,50.0,0,False,1,down,0.16666666666666666,20,0,0.3676249000709504,0.3676249000709504,0.9605293000349775,False,near-rnd2,13,1,0,0.625,1,down,4,0
122,3,True,1.4341245000250638,800.0,33.0,50.0,0,False,3,up,0.16666666666666666,36,0,0.6050350998993963,0.6050350998993963,0.703237000037916,False,near-rnd3,13,10,5,6.25,1,up,8,1
123,2,True,1.294251999934204,800.0,800.0,50.0,0,False,0,down,0.16666666666666666,12,0,0.21364039997570217,0.21364039997570217,0.6614927001064643,True,near-rndm,13,1,1,0.625,1,down,4,0
124,1,True,1.5128806000575423,800.0,50.0,33.0,0,False,2,down,0.16666666666666666,32,0,0.529360800050199,0.529360800050199,0.6832056000130251,False,near-000,13,7,4,4.375,1,down,4,0
125,2,True,0.8566060999874026,800.0,50.0,800.0,8,False,2,up,0.16666666666666666,16,0.14811230008490384,0.3051347000291571,0.45324700011406094,0.4929639999754727,True,radial-star,13,1,1,0.625,1,up,8,0
126,2,True,1.448223099927418,800.0,50.0,800.0,8,False,2,down,0.16666666666666666,16,0.15424249996431172,0.30531169997993857,0.4595541999442503,0.6245042999507859,True,radial-anulus,13,6,5,3.75,1,down,4,0
127,1,True,3.89290279999841,800.0,50.0,100.0,8,False,2,down,0.16666666666666666,12,0.13804579991847277,0.22354959999211133,0.3615953999105841,0.612681100028567,True,grating-gauss,13,1,1,0.625,1,down,4,0
128,2,True,1.467672200058587,800.0,50.0,800.0,8,False,2,up,0.16666666666666666,16,0.15493509999942034,0.30693079996854067,0.461865899967961,0.6002817000262439,True,radial-check,13,3,2,1.875,1,up,8,0
129,1,True,14.9746544000227,800.0,50.0,33.0,8,False,2,up,0.16666666666666666,18,0.14177750004455447,0.31702099996618927,0.45879850001074374,0.6945934001123533,True,orig-stim,13,4,3,2.5,2,up,2,0
130,2,True,2.6360952999675646,800.0,50.0,50.0,8,False,2,down,0.16666666666666666,16,0.1500704000936821,0.8340088999830186,0.9840793000767007,0.7934757000766695,True,grating-circ,13,6,4,3.75,1,down,4,0
131,1,True,2.7612989000044763,800.0,50.0,33.0,0,False,2,down,0.16666666666666666,32,0,0.532647900050506,0.532647900050506,0.603084500064142,True,near-000,14,8,5,5.0,1,down,4,0
132,4,True,6.064354100031778,800.0,100.0,50.0,0,False,1,down,0.16666666666666666,20,0,0.3760157000506297,0.3760157000506297,0.7001172999152914,True,near-rnd2,14,2,1,1.25,1,down,4,0
133,4,True,1.2582825999706984,800.0,800.0,50.0,0,False,0,down,0.16666666666666666,12,0,0.23547549999784678,0.23547549999784678,0.5786928000161424,True,near-rndm,14,2,2,1.25,1,down,4,0
134,1,True,5.819859299925156,800.0,50.0,800.0,8,False,2,up,0.16666666666666666,16,0.13985440006945282,0.2896620000246912,0.42951640009414405,0.617618800024502,True,radial-check,14,4,3,2.5,1,up,8,0
135,4,True,2.211189799942076,800.0,33.0,50.0,0,False,3,up,0.16666666666666666,40,0,0.6679290999891236,0.6679290999891236,0.5390774999978021,True,near-rnd3,14,1,1,0.625,1,up,4,0
136,1,True,1.9188516999129206,800.0,50.0,800.0,8,False,2,down,0.16666666666666666,12,0.13921870000194758,0.22289279999677092,0.3621114999987185,0.9895240999758244,True,radial-anulus,14,1,1,0.625,1,down,4,0
137,1,True,1.472395999939181,800.0,50.0,33.0,8,False,2,up,0.16666666666666666,18,0.13599590002559125,0.31927970005199313,0.4552756000775844,0.8060684000374749,True,orig-stim,14,5,4,3.125,2,up,2,0
138,2,True,1.5971992000704631,800.0,50.0,800.0,8,False,2,up,0.16666666666666666,16,0.14081839995924383,0.2993854000233114,0.4402037999825552,0.5613302000565454,True,radial-star,14,2,2,1.25,1,up,8,0
139,1,True,4.383461400051601,800.0,50.0,50.0,8,False,2,down,0.16666666666666666,16,0.13452059996780008,0.2908136999467388,0.42533429991453886,0.6553921999875456,True,grating-circ,14,7,5,4.375,1,down,4,0
140,2,True,1.4879426000406966,800.0,50.0,100.0,8,False,2,down,0.16666666666666666,12,0.14595010003540665,0.24485820007976145,0.3908083001151681,1.904892500024289,False,grating-gauss,14,2,1,1.25,1,down,4,0
141,4,True,1.092075900058262,800.0,33.0,50.0,0,False,3,up,0.16666666666666666,40,0,0.6709317000349984,0.6709317000349984,0.8873248000163585,True,near-rnd3,15,2,2,1.25,1,up,4,0
142,1,True,1.9912138000363484,800.0,50.0,800.0,8,False,2,up,0.16666666666666666,16,0.13902410003356636,0.2918331000255421,0.43085720005910844,1.373846699949354,True,radial-check,15,5,4,3.125,1,up,8,0
143,2,True,2.583383599994704,800.0,800.0,50.0,0,False,0,down,0.16666666666666666,12,0,0.21580650005489588,0.21580650005489588,0.8187066999962553,False,near-rndm,15,3,2,1.875,1,down,4,0
144,1,True,1.8588945999508724,800.0,50.0,33.0,8,False,2,up,0.16666666666666666,18,0.13647789997048676,0.3215419000480324,0.45801980001851916,0.44488730002194643,True,orig-stim,15,6,5,3.75,2,up,2,0
145,2,True,1.8673535999841988,800.0,50.0,100.0,8,False,2,down,0.16666666666666666,12,0.1435062000527978,0.24685790005605668,0.3903641001088545,0.6351583000505343,False,grating-gauss,15,3,1,1.875,1,down,4,0
146,2,True,1.3434903000015765,800.0,50.0,800.0,8,False,2,up,0.16666666666666666,16,0.5969244000734761,0.3139485000865534,0.9108729001600295,0.2523582000285387,True,radial-star,15,3,3,1.875,1,up,8,0
147,2,True,1.6519171999534592,800.0,100.0,50.0,0,False,1,down,0.16666666666666666,20,0,0.362045899964869,0.362045899964869,0.9804979000473395,False,near-rnd2,15,3,1,1.875,1,down,4,0
148,1,True,2.3333579000318423,800.0,50.0,33.0,0,False,2,down,0.16666666666666666,32,0,0.530521799926646,0.530521799926646,0.5338920999784023,True,near-000,15,9,6,5.625,1,down,4,1
149,1,True,2.7535551000619307,800.0,50.0,800.0,8,False,2,down,0.16666666666666666,12,0.1376299998955801,0.5169477999443188,0.6545777998398989,0.2990183000219986,True,radial-anulus,15,2,2,1.25,1,down,4,0
150,2,True,1.1886571999639273,800.0,50.0,50.0,8,False,2,down,0.16666666666666666,16,0.14339600002858788,0.30104060005396605,0.4444366000825539,0.5234511999879032,True,grating-circ,15,8,6,5.0,1,down,4,0
151,2,True,2.817617099964991,800.0,50.0,800.0,8,False,2,down,0.16666666666666666,12,0.14382390002720058,0.6560755999526009,0.7998994999798015,0.364754099980928,True,radial-anulus,16,3,3,1.875,1,down,4,0
152,2,True,5.064960599993356,800.0,50.0,50.0,8,False,2,down,0.16666666666666666,16,0.14687759999651462,0.3015851000091061,0.4484627000056207,0.5612298999913037,True,grating-circ,16,9,7,5.625,1,down,4,1
153,1,True,14.495750900008716,800.0,33.0,50.0,0,False,3,up,0.16666666666666666,40,0,0.6493489999556914,0.6493489999556914,0.5038187999743968,True,near-rnd3,16,3,3,1.875,1,up,4,0
154,2,True,1.3438929000403732,800.0,50.0,33.0,8,False,2,up,0.16666666666666666,18,0.14867519994731992,0.33553710009437054,0.48421230004169047,0.46545090002473444,True,orig-stim,16,7,6,4.375,2,up,2,0
155,1,True,1.6354777000378817,800.0,100.0,50.0,0,False,1,down,0.16666666666666666,20,0,0.3409452000632882,0.3409452000632882,0.6118516999995336,True,near-rnd2,16,4,2,2.5,1,down,4,0
156,2,True,1.1895199000136927,800.0,50.0,800.0,8,False,2,up,0.16666666666666666,16,0.1490584999555722,0.30421909992583096,0.45327759988140315,0.739432799979113,True,radial-check,16,6,5,3.75,1,up,8,0
157,1,True,3.3179125000024214,800.0,800.0,50.0,0,False,0,down,0.16666666666666666,12,0,0.20987159991636872,0.20987159991636872,0.7734375,False,near-rndm,16,4,2,2.5,1,down,4,0
158,5,True,0.8212733999826014,800.0,50.0,800.0,8,False,2,down,0.16666666666666666,12,0.16699549998156726,0.26845960004720837,0.43545510002877563,0.5003366000019014,True,radial-star,16,1,1,0.625,1,down,4,0
159,1,True,1.4984916999237612,800.0,50.0,100.0,8,False,2,down,0.16666666666666666,12,0.13767900003585964,0.2200406000483781,0.35771960008423775,1.0978447999805212,False,grating-gauss,16,4,1,2.5,1,down,4,0
160,3,True,2.375198299996555,800.0,50.0,33.0,0,False,2,down,0.16666666666666666,32,0,0.559512099949643,0.559512099949643,0.5709041999652982,True,near-000,16,10,7,6.25,1,down,4,1
161,3,True,1.1715240000048652,800.0,33.0,50.0,0,False,3,down,0.16666666666666666,38,0,0.632601400022395,0.632601400022395,0.3875937000848353,True,near-rnd3,17,1,1,0.625,1,down,2,0
162,1,True,3.073591300053522,800.0,50.0,33.0,0,False,2,down,0.16666666666666666,32,0,0.7716160999843851,0.7716160999843851,0.4361742000328377,True,near-000,17,11,8,6.875,1,down,4,1
163,1,True,1.6264811999863014,800.0,50.0,800.0,8,False,2,down,0.16666666666666666,12,0.13902720005717129,0.2188758000265807,0.357903000083752,0.8566754999337718,False,radial-star,17,2,1,1.25,1,down,4,0
164,2,True,1.2078311999794096,800.0,800.0,50.0,0,False,0,down,0.16666666666666666,12,0,0.21538670000154525,0.21538670000154525,0.7170771999517456,True,near-rndm,17,5,3,3.125,1,down,4,0
165,2,True,3.4098846000852063,800.0,50.0,100.0,8,False,2,up,0.16666666666666666,14,0.14977839996572584,0.26819430000614375,0.4179726999718696,0.48717910004779696,True,grating-gauss,17,1,1,0.625,1,up,2,0
166,3,True,3.370046900003217,800.0,50.0,800.0,8,False,2,down,0.16666666666666666,12,0.1502418000018224,0.25007300009019673,0.40031480009201914,0.5836963000474498,True,radial-check,17,1,1,0.625,1,down,4,0
167,4,True,1.1020499999867752,800.0,50.0,50.0,8,False,2,down,0.16666666666666666,14,0.16439509997144341,0.29161369998473674,0.45600879995618016,0.8829956999979913,True,grating-circ,17,1,1,0.625,1,down,2,0
168,4,True,1.9003212999086827,800.0,100.0,50.0,0,False,1,down,0.16666666666666666,20,0,0.37469680001959205,0.37469680001959205,0.6362401000224054,True,near-rnd2,17,5,3,3.125,1,down,4,0
169,2,True,2.448683899943717,800.0,50.0,800.0,8,False,2,down,0.16666666666666666,8,0.14304220001213253,0.1766716999700293,0.3197138999821618,0.7964421999640763,True,radial-anulus,17,1,1,0.625,1,down,4,0
170,3,True,1.3972236999543384,800.0,50.0,33.0,8,False,2,up,0.16666666666666666,18,0.15219250007066876,0.33382699999492615,0.4860195000655949,0.9924667000304908,True,orig-stim,17,8,7,5.0,2,up,2,0
171,1,True,1.9466655000578612,800.0,100.0,50.0,0,False,1,down,0.16666666666666666,20,0,0.3418224999913946,0.3418224999913946,0.6861965999705717,True,near-rnd2,18,6,4,3.75,1,down,4,0
172,1,True,1.3588498999597505,800.0,50.0,50.0,8,False,2,down,0.16666666666666666,14,0.13683099998161197,0.25040460005402565,0.3872356000356376,0.7968694000737742,False,grating-circ,18,2,1,1.25,2,down,2,0
173,1,True,1.9675304000265896,800.0,50.0,800.0,8,False,2,down,0.16666666666666666,8,0.13289470004383475,0.16050739993806928,0.29340209998190403,0.9197748999577016,False,radial-anulus,18,2,1,1.25,1,down,4,0
174,4,True,1.1045441998867318,800.0,800.0,50.0,0,False,0,down,0.16666666666666666,12,0,0.7643805000698194,0.7643805000698194,0.30790320003870875,True,near-rndm,18,6,4,3.75,1,down,4,0
175,3,True,2.288771599996835,800.0,33.0,50.0,0,False,3,down,0.16666666666666666,38,0,0.6341024999273941,0.6341024999273941,0.48045020003337413,True,near-rnd3,18,2,2,1.25,2,down,2,0
176,1,True,1.6848914999281988,800.0,50.0,33.0,8,False,2,up,0.16666666666666666,18,0.13454549992457032,0.3175277999835089,0.4520732999080792,1.0715182999847457,True,orig-stim,18,9,8,5.625,2,up,2,1
177,1,True,2.8335803999798372,800.0,50.0,100.0,8,False,2,up,0.16666666666666666,14,0.13548199995420873,0.2476544000674039,0.38313640002161264,0.7619227000977844,True,grating-gauss,18,2,2,1.25,2,up,2,0
178,3,True,1.3416109000099823,800.0,50.0,800.0,8,False,2,down,0.16666666666666666,12,0.1459367999341339,0.2458984999684617,0.3918352999025956,1.412863599951379,True,radial-star,18,3,2,1.875,1,down,4,0
179,2,True,1.250415000016801,800.0,50.0,33.0,0,False,2,down,0.16666666666666666,30,0,0.510821899981238,0.510821899981238,1.0657321999315172,False,near-000,18,1,0,0.625,1,down,2,0
180,1,True,4.0305097999516875,800.0,50.0,800.0,8,False,2,down,0.16666666666666666,12,0.13485739997122437,0.2258727999869734,0.3607301999581978,0.7775674000149593,True,radial-check,18,2,2,1.25,1,down,4,0
181,1,True,1.4439659001072869,800.0,50.0,800.0,8,False,2,down,0.16666666666666666,8,0.14193640009034425,0.16005810000933707,0.3019945000996813,1.2072673999937251,False,radial-anulus,19,3,1,1.875,1,down,4,0
182,4,True,2.863374900072813,800.0,50.0,33.0,0,False,2,down,0.16666666666666666,30,0,0.7710370999993756,0.7710370999993756,0.4753961000824347,True,near-000,19,2,1,1.25,2,down,2,0
183,4,True,6.408944500028156,800.0,50.0,100.0,8,False,2,up,0.16666666666666666,14,0.14629900001455098,0.290145399980247,0.436444399994798,0.5768007000442594,True,grating-gauss,19,3,3,1.875,2,up,2,0
184,2,True,1.7358072000788525,800.0,50.0,50.0,8,False,2,down,0.16666666666666666,14,0.14909760002046824,0.26354049996007234,0.4126380999805406,0.665830299956724,True,grating-circ,19,3,2,1.875,2,down,2,0
185,1,True,1.3788131999317557,800.0,50.0,800.0,8,False,2,down,0.16666666666666666,12,0.13992159999907017,0.6356345000676811,0.7755561000667512,0.47510899999178946,True,radial-check,19,3,3,1.875,1,down,4,0
186,1,True,1.6753194999182597,800.0,50.0,800.0,8,False,2,down,0.16666666666666666,12,0.13823540008161217,0.2318787999683991,0.3701142000500113,1.3233669999754056,False,radial-star,19,4,2,2.5,1,down,4,0
187,3,True,1.4218786000274122,800.0,33.0,50.0,0,False,3,down,0.16666666666666666,38,0,0.6309106000699103,0.6309106000699103,0.6024601999670267,True,near-rnd3,19,3,3,1.875,2,down,2,0
188,1,True,1.7536512999795377,800.0,800.0,50.0,0,False,0,down,0.16666666666666666,12,0,0.20892650005407631,0.20892650005407631,0.9330995000200346,False,near-rndm,19,7,4,4.375,1,down,4,0
189,2,True,0.9466133000096306,800.0,100.0,50.0,0,False,1,down,0.16666666666666666,20,0,0.3626731999684125,0.3626731999684125,0.7461754999822006,True,near-rnd2,19,7,5,4.375,1,down,4,0
190,2,True,1.056275499984622,800.0,50.0,33.0,8,False,2,down,0.16666666666666666,17,0.14368769992142916,0.32691299996804446,0.4706006998894736,0.6968007000396028,True,orig-stim,19,1,1,0.625,2,down,1,0
191,2,True,0.9621279999846593,800.0,50.0,33.0,8,False,2,down,0.16666666666666666,17,0.14268060005269945,0.3255230999784544,0.46820370003115386,0.597448299988173,True,orig-stim,20,2,2,1.25,3,down,1,0
192,1,True,1.932312799966894,800.0,50.0,800.0,8,False,2,down,0.16666666666666666,8,0.13561230001505464,0.15608420001808554,0.2916965000331402,0.8187757999403402,False,radial-anulus,20,4,1,2.5,1,down,4,0
193,4,True,1.0681513999588788,800.0,50.0,100.0,8,False,2,up,0.16666666666666666,14,0.15613670006860048,0.2932238000212237,0.4493605000898242,0.5489433000329882,True,grating-gauss,20,4,4,2.5,2,up,2,0
194,2,True,2.2347569999983534,800.0,33.0,50.0,0,False,3,down,0.16666666666666666,38,0,0.6287886999780312,0.6287886999780312,0.6326393999624997,False,near-rnd3,20,4,3,2.5,2,down,2,0
195,2,True,2.6436642999760807,800.0,100.0,50.0,0,False,1,down,0.16666666666666666,20,0,0.35442820005118847,0.35442820005118847,0.6840439999941736,True,near-rnd2,20,8,6,5.0,1,down,4,0
196,1,True,4.422542000073008,800.0,50.0,50.0,8,False,2,down,0.16666666666666666,14,0.1379196000052616,0.2622232000576332,0.4001428000628948,0.6022370000137016,True,grating-circ,20,4,3,2.5,2,down,2,0
197,4,True,1.4167276000371203,800.0,50.0,33.0,0,False,2,down,0.16666666666666666,30,0,1.041198500082828,1.041198500082828,0.6134679999668151,True,near-000,20,3,2,1.875,2,down,2,0
198,3,True,1.2790101000573486,800.0,50.0,800.0,8,False,2,down,0.16666666666666666,8,0.1509715000865981,0.1843778999755159,0.335349400062114,0.6143754000077024,False,radial-check,20,1,0,0.625,1,down,4,0
199,3,True,1.2726695999735966,800.0,50.0,800.0,8,False,2,down,0.16666666666666666,12,0.15313730004709214,0.24653060000855476,0.3996679000556469,0.7784299000632018,True,radial-star,20,5,3,3.125,1,down,4,0
200,1,True,1.8303698999807239,800.0,800.0,50.0,0,False,0,down,0.16666666666666666,12,0,0.2082705000648275,0.2082705000648275,1.0104841999709606,False,near-rndm,20,8,4,5.0,1,down,4,0
201,1,True,2.6676815999671817,800.0,50.0,50.0,8,False,2,down,0.16666666666666666,14,0.13919979997444898,0.2506107999943197,0.38981059996876866,0.5199528000084683,True,grating-circ,21,5,4,3.125,2,down,2,0
202,1,True,1.4576556000392884,800.0,50.0,33.0,0,False,2,down,0.16666666666666666,30,0,0.49936440004967153,0.49936440004967153,0.7744268999667838,True,near-000,21,4,3,2.5,2,down,2,0
203,1,True,1.49202719994355,800.0,50.0,800.0,8,False,2,up,0.16666666666666666,10,0.1357849999330938,0.18636420008260757,0.32214920001570135,0.6304118999978527,True,radial-anulus,21,1,1,0.625,1,up,2,0
204,1,True,2.112808700068854,800.0,800.0,50.0,0,False,0,down,0.16666666666666666,12,0,0.21084700000938028,0.21084700000938028,1.7199234999716282,True,near-rndm,21,9,5,5.625,1,down,4,1
205,4,True,1.6203252000268549,800.0,50.0,100.0,8,False,2,up,0.16666666666666666,14,0.16161090007517487,0.2858160000760108,0.4474269001511857,0.639041000045836,True,grating-gauss,21,5,5,3.125,2,up,2,0
206,3,True,1.2936890000710264,800.0,33.0,50.0,0,False,3,down,0.16666666666666666,38,0,0.6384153999388218,0.6384153999388218,0.49867270002141595,False,near-rnd3,21,5,3,3.125,2,down,2,0
207,3,True,1.0834485000232235,800.0,50.0,33.0,8,False,2,down,0.16666666666666666,17,0.15139279991853982,0.3193205000134185,0.4707132999319583,0.7171383999520913,False,orig-stim,21,3,2,1.875,3,down,1,0
208,1,True,1.4511327999643981,800.0,50.0,800.0,8,False,2,down,0.16666666666666666,12,0.1391047000652179,0.22119079995900393,0.36029550002422184,0.6075115000130609,True,radial-star,21,6,4,3.75,1,down,4,0
209,5,True,1.6612486999947578,800.0,100.0,50.0,0,False,1,down,0.16666666666666666,20,0,0.3800481000216678,0.3800481000216678,0.670073900022544,True,near-rnd2,21,9,7,5.625,1,down,4,1
210,2,True,1.504190000006929,800.0,50.0,800.0,8,False,2,down,0.16666666666666666,8,0.15488669998012483,0.17323820001911372,0.32812489999923855,1.748540100059472,False,radial-check,21,2,0,1.25,1,down,4,0
211,2,True,3.7777141999686137,800.0,50.0,33.0,8,False,2,down,0.16666666666666666,17,0.14103220007382333,0.32089969993103296,0.4619319000048563,0.5705925000365824,True,orig-stim,22,4,3,2.5,3,down,1,0
212,3,True,1.0036295000463724,800.0,100.0,50.0,0,False,1,down,0.16666666666666666,18,0,0.3322162999538705,0.3322162999538705,0.6193406999809667,True,near-rnd2,22,1,1,0.625,1,down,2,0
213,3,True,1.4131407000822946,800.0,50.0,50.0,8,False,2,down,0.16666666666666666,14,0.14513179997447878,0.270871999906376,0.4160037998808548,1.277034700033255,True,grating-circ,22,6,5,3.75,2,down,2,0
