trial,primeIter,primeCorrect,primeTime,primeDepth,stimDepth,extraDepth,driveFrames,nearToFar,diopters,direction,size,intensity,extraLatency,mainLatency,totalLatency,responseTime,correct,caseLabel,caseTrial,trialsAtStep,stepCorrect,expected,w,direction,stepsize,stepChange
1,3,True,3.243935300037265,33.0,33.0,100.0,0,False,0,start,0.16666666666666666,60,0,0.9820342999882996,0.9820342999882996,0.3998636999167502,True,far-rnd0,1,1,1,0.625,0.5,start,16,0
2,2,True,3.622021400136873,33.0,100.0,800.0,15,True,2,start,0.16666666666666666,60,0.25989270000718534,1.0069925000425428,1.2668852000497282,0.45581529987975955,True,far-240,1,1,1,0.625,0.5,start,16,0
3,2,True,1.4199266000650823,33.0,100.0,800.0,5,True,2,start,0.16666666666666666,60,0.09606819995678961,1.0092480001039803,1.10531620006077,0.2831939999014139,True,far-080,1,1,1,0.625,0.5,start,16,0
4,1,True,9.181637999834493,33.0,100.0,800.0,10,True,2,start,0.16666666666666666,60,0.16708659986034036,1.0046763001009822,1.1717628999613225,0.08642290020361543,True,far-160,1,1,1,0.625,0.5,start,16,0
5,2,True,1.4973430999089032,33.0,100.0,800.0,0,True,2,start,0.16666666666666666,60,0,0.9974792001303285,0.9974792001303285,0.2194043998606503,True,far-000,1,1,1,0.625,0.5,start,16,0
6,2,True,3.448761000065133,33.0,50.0,100.0,0,True,1,start,0.16666666666666666,60,0,0.994543100008741,0.994543100008741,0.18095549987629056,True,far-rnd1,1,1,1,0.625,0.5,start,16,0
7,3,True,3.955523099983111,33.0,800.0,100.0,0,True,3,start,0.16666666666666666,60,0,0.99450089992024,0.99450089992024,0.2897262000478804,True,far-rnd3,1,1,1,0.625,0.5,start,16,0
8,3,True,2.0507571999914944,33.0,100.0,800.0,10,True,2,start,0.16666666666666666,44,0.18224530015140772,0.7638503001071513,0.946095600258559,0.2629466000944376,True,far-160,2,1,1,0.625,1.0,start,16,0
9,2,True,1.8947162998374552,33.0,50.0,100.0,0,True,1,start,0.16666666666666666,44,0,0.7377263000234962,0.7377263000234962,0.4525166000239551,True,far-rnd1,2,1,1,0.625,1.0,start,16,0
10,3,True,1.1125351001974195,33.0,100.0,800.0,5,True,2,start,0.16666666666666666,44,0.09899520012550056,0.7648424999788404,0.8638377001043409,0.35248620016500354,True,far-080,2,1,1,0.625,1.0,start,16,0
11,1,True,2.417406299849972,33.0,800.0,100.0,0,True,3,start,0.16666666666666666,44,0,0.7311816001310945,0.7311816001310945,0.7157217001076788,True,far-rnd3,2,1,1,0.625,1.0,start,16,0
12,3,True,2.4817116998601705,33.0,100.0,800.0,0,True,2,start,0.16666666666666666,44,0,0.7479429999366403,0.7479429999366403,0.4197444999590516,True,far-000,2,1,1,0.625,1.0,start,16,0
13,4,True,3.079415400046855,33.0,100.0,800.0,15,True,2,start,0.16666666666666666,44,0.2525945999659598,0.7760964001063257,1.0286910000722855,3.2729910002090037,True,far-240,2,1,1,0.625,1.0,start,16,0
14,3,True,2.3195559999439865,33.0,33.0,100.0,0,False,0,start,0.16666666666666666,44,0,0.728956300066784,0.728956300066784,0.3535124999471009,True,far-rnd0,2,1,1,0.625,1.0,start,16,0
15,2,True,2.0466985998209566,33.0,100.0,800.0,15,True,2,start,0.16666666666666666,28,0.25317179993726313,0.6577484000008553,0.9109201999381185,0.3798400000669062,True,far-240,3,1,1,0.625,1.0,start,16,0
16,3,True,2.571641999995336,33.0,800.0,100.0,0,True,3,start,0.16666666666666666,28,0,0.486474699806422,0.486474699806422,0.8039085001219064,False,far-rnd3,3,1,0,0.625,1.0,start,16,0
17,2,True,1.8093175999820232,33.0,33.0,100.0,0,False,0,start,0.16666666666666666,28,0,0.47129040001891553,0.47129040001891553,0.5905142999254167,True,far-rnd0,3,1,1,0.625,1.0,start,16,0
18,2,True,1.6922857000026852,33.0,100.0,800.0,0,True,2,start,0.16666666666666666,28,0,0.4825874001253396,0.4825874001253396,0.7565289000049233,True,far-000,3,1,1,0.625,1.0,start,16,0
19,2,True,2.6801927997730672,33.0,50.0,100.0,0,True,1,start,0.16666666666666666,28,0,0.47719920007511973,0.47719920007511973,0.5703027001582086,True,far-rnd1,3,1,1,0.625,1.0,start,16,0
20,1,True,2.3674731999635696,33.0,100.0,800.0,5,True,2,start,0.16666666666666666,28,0.09453090000897646,0.4924515997990966,0.586982499808073,0.5921272998675704,True,far-080,3,1,1,0.625,1.0,start,16,0
21,4,True,2.3067757000681013,33.0,100.0,800.0,10,True,2,start,0.16666666666666666,28,0.1853098999708891,0.5020079999230802,0.6873178998939693,1.035797700053081,True,far-160,3,1,1,0.625,1.0,start,16,0
22,1,True,5.929486299864948,33.0,100.0,800.0,5,True,2,start,0.16666666666666666,12,0.0880666000302881,0.251765200169757,0.3398318002000451,1.2356483000330627,True,far-080,4,1,1,0.625,0.5,start,16,0
23,2,True,1.7238082999829203,33.0,33.0,100.0,0,False,0,start,0.16666666666666666,12,0,0.26555190002545714,0.26555190002545714,1.366019899956882,False,far-rnd0,4,1,0,0.625,0.5,start,16,0
24,2,True,2.1690996000543237,33.0,100.0,800.0,10,True,2,start,0.16666666666666666,12,0.17028040019795299,0.24706610012799501,0.417346500325948,1.780274499906227,True,far-160,4,1,1,0.625,0.5,start,16,0
25,2,True,3.4725027000531554,33.0,800.0,100.0,0,True,3,up,0.16666666666666666,36,0,0.6081755999475718,0.6081755999475718,0.8952826000750065,False,far-rnd3,4,1,0,0.625,0.5,up,8,0
26,3,True,1.534131099935621,33.0,50.0,100.0,0,True,1,start,0.16666666666666666,12,0,0.23491279990412295,0.23491279990412295,1.2015603000763804,False,far-rnd1,4,1,0,0.625,0.5,start,16,0
27,2,True,3.3144058000762016,33.0,100.0,800.0,15,True,2,start,0.16666666666666666,12,0.2533988000359386,0.24561629979871213,0.49901509983465075,1.9455289000179619,False,far-240,4,1,0,0.625,0.5,start,16,0
28,4,True,2.783005299977958,33.0,100.0,800.0,0,True,2,start,0.16666666666666666,12,0,0.22962290002033114,0.22962290002033114,1.0260401000268757,True,far-000,4,1,1,0.625,0.5,start,16,0
29,3,True,3.022041599964723,33.0,50.0,100.0,0,True,1,up,0.16666666666666666,20,0,0.3557263999246061,0.3557263999246061,0.6390628998633474,True,far-rnd1,5,1,1,0.625,0.5,up,8,0
30,1,True,3.15957700018771,33.0,100.0,800.0,5,True,2,start,0.16666666666666666,0,0.0877555999904871,0.039425000082701445,0.12718060007318854,1.3320084000006318,False,far-080,5,1,0,0.625,0.5,start,16,0
31,2,True,4.512569700134918,33.0,100.0,800.0,15,True,2,up,0.16666666666666666,20,0.34681429993361235,0.3775752999354154,0.7243895998690277,0.5914167000446469,True,far-240,5,1,1,0.625,0.5,up,8,0
32,1,True,3.78343279985711,33.0,33.0,100.0,0,False,0,up,0.16666666666666666,20,0,0.3354825999122113,0.3354825999122113,1.813566000200808,False,far-rnd0,5,1,0,0.625,0.5,up,8,0
33,1,True,2.24179120012559,33.0,100.0,800.0,10,True,2,start,0.16666666666666666,0,0.16975370002910495,0.04238089988939464,0.2121345999184996,1.0863504000008106,True,far-160,5,1,1,0.625,0.5,start,16,0
34,3,True,1.5238691999111325,33.0,100.0,800.0,0,True,2,start,0.16666666666666666,0,0,0.03362279990687966,0.03362279990687966,1.1416257999371737,False,far-000,5,1,0,0.625,0.5,start,16,0
35,2,True,2.125593700213358,33.0,800.0,100.0,0,True,3,up,0.16666666666666666,36,0,0.6067527001723647,0.6067527001723647,0.8414241001009941,True,far-rnd3,5,2,1,1.25,1,up,8,0
36,2,True,2.615316499955952,33.0,800.0,100.0,0,True,3,up,0.16666666666666666,36,0,0.6048039998859167,0.6048039998859167,0.6818850999698043,True,far-rnd3,6,3,2,1.875,1,up,8,0
37,2,True,2.257531800074503,33.0,50.0,100.0,0,True,1,up,0.16666666666666666,20,0,0.3524404999334365,0.3524404999334365,0.6474586001131684,True,far-rnd1,6,2,2,1.25,1,up,8,0
38,4,True,2.6692172000184655,33.0,33.0,100.0,0,False,0,up,0.16666666666666666,20,0,0.34707129979506135,0.34707129979506135,0.7381303999572992,True,far-rnd0,6,2,1,1.25,1,up,8,0
39,1,True,3.51903080008924,33.0,100.0,800.0,10,True,2,start,0.16666666666666666,0,0.16978790005668998,0.03872259985655546,0.20851049991324544,1.1549146999605,False,far-160,6,1,0,0.625,0.5,start,16,0
40,1,True,3.8600771999917924,33.0,100.0,800.0,5,True,2,up,0.16666666666666666,8,0.09297950007021427,0.1805847999639809,0.2735643000341952,1.0407265999820083,False,far-080,6,1,0,0.625,0.5,up,8,0
41,1,True,4.634763400070369,33.0,100.0,800.0,15,True,2,up,0.16666666666666666,20,0.2516850000247359,0.3610529999714345,0.6127379999961704,0.6469759999308735,False,far-240,6,2,1,1.25,1,up,8,0
42,1,True,5.2538254000246525,33.0,100.0,800.0,0,True,2,up,0.16666666666666666,8,0,0.16240589995868504,0.16240589995868504,1.198355599772185,True,far-000,6,1,1,0.625,0.5,up,8,0
43,4,True,2.2800634000450373,33.0,50.0,100.0,0,True,1,up,0.16666666666666666,20,0,0.3673380999825895,0.3673380999825895,0.923638999927789,True,far-rnd1,7,3,3,1.875,1,up,8,0
44,2,True,3.519086099928245,33.0,100.0,800.0,0,True,2,up,0.16666666666666666,8,0,0.16242920001968741,0.16242920001968741,1.1200480998959392,False,far-000,7,2,1,1.25,1,up,8,0
45,3,True,1.2677859000395983,33.0,100.0,800.0,10,True,2,up,0.16666666666666666,8,0.17848360002972186,0.18039159988984466,0.3588751999195665,1.076308500021696,True,far-160,7,1,1,0.625,0.5,up,8,0
46,1,True,3.19750289991498,33.0,100.0,800.0,5,True,2,up,0.16666666666666666,8,0.09137529996223748,0.173275199951604,0.2646504999138415,0.9291187999770045,True,far-080,7,2,1,1.25,1,up,8,0
47,1,True,2.723322300007567,33.0,33.0,100.0,0,False,0,up,0.16666666666666666,20,0,0.3378702998161316,0.3378702998161316,0.6288341998588294,True,far-rnd0,7,3,2,1.875,1,up,8,0
48,3,True,2.3466555001214147,33.0,100.0,800.0,15,True,2,up,0.16666666666666666,20,0.25857629999518394,0.3671335999388248,0.6257098999340087,0.7489820998162031,True,far-240,7,3,2,1.875,1,up,8,0
49,3,True,3.5429670000448823,33.0,800.0,100.0,0,True,3,up,0.16666666666666666,36,0,0.6103336999658495,0.6103336999658495,1.354025699896738,True,far-rnd3,7,4,3,2.5,1,up,8,0
50,1,True,2.9238040999043733,33.0,100.0,800.0,10,True,2,up,0.16666666666666666,8,0.17150330008007586,0.17139520007185638,0.34289850015193224,0.9862244001124054,False,far-160,8,2,1,1.25,1,up,8,0
51,4,True,3.6533581998664886,33.0,50.0,100.0,0,True,1,down,0.16666666666666666,16,0,0.3019388001412153,0.3019388001412153,2.5999406001064926,False,far-rnd1,8,1,0,0.625,1,down,4,0
52,2,True,1.5752898000646383,33.0,100.0,800.0,15,True,2,up,0.16666666666666666,20,0.2516207001172006,0.45056729996576905,0.7021880000829697,0.5620450000278652,True,far-240,8,4,3,2.5,1,up,8,0
53,4,True,3.0450700998771936,33.0,800.0,100.0,0,True,3,up,0.16666666666666666,36,0,0.6157043999992311,0.6157043999992311,0.7528984001837671,True,far-rnd3,8,5,4,3.125,1,up,8,0
54,3,True,1.5991509999148548,33.0,33.0,100.0,0,False,0,up,0.16666666666666666,20,0,0.3452985000330955,0.3452985000330955,0.7603261999320239,False,far-rnd0,8,4,2,2.5,1,up,8,0
55,4,True,4.763574300101027,33.0,100.0,800.0,5,True,2,up,0.16666666666666666,8,0.09920320007950068,0.18137639993801713,0.2805796000175178,1.0973201000597328,False,far-080,8,3,1,1.875,1,up,8,0
56,2,True,2.331361500080675,33.0,100.0,800.0,0,True,2,up,0.16666666666666666,8,0,0.1704092000145465,0.1704092000145465,1.0336970000062138,True,far-000,8,3,2,1.875,1,up,8,0
57,2,True,2.5870739000383765,33.0,100.0,800.0,15,True,2,up,0.16666666666666666,20,0.25081990007311106,0.4374587000347674,0.6882786001078784,0.6366018999833614,True,far-240,9,5,4,3.125,1,up,8,0
58,4,True,3.6201194999739528,33.0,100.0,800.0,0,True,2,up,0.16666666666666666,8,0,0.17380460002459586,0.17380460002459586,1.326882699970156,True,far-000,9,4,3,2.5,1,up,8,0
59,1,True,3.1559831998310983,33.0,100.0,800.0,10,True,2,up,0.16666666666666666,8,0.17229360016062856,0.1729448998812586,0.34523850004188716,1.2572916999924928,False,far-160,9,3,1,1.875,1,up,8,0
60,1,True,3.741497299866751,33.0,800.0,100.0,0,True,3,up,0.16666666666666666,36,0,0.6008912001270801,0.6008912001270801,0.8377249999903142,True,far-rnd3,9,6,5,3.75,1,up,8,0
61,3,True,2.76041919994168,33.0,100.0,800.0,5,True,2,up,0.16666666666666666,8,0.09847770002670586,0.18782629980705678,0.28630399983376265,0.9478186999913305,False,far-080,9,4,1,2.5,1,up,8,0
62,3,True,1.6926390000153333,33.0,50.0,100.0,0,True,1,down,0.16666666666666666,16,0,0.2893586999271065,0.2893586999271065,0.8995250000152737,True,far-rnd1,9,2,1,1.25,1,down,4,0
63,2,True,2.5337904999032617,33.0,33.0,100.0,0,False,0,up,0.16666666666666666,20,0,0.3379061999730766,0.3379061999730766,0.9234891999512911,False,far-rnd0,9,5,2,3.125,1,up,8,0
64,4,True,3.1095068000722677,33.0,50.0,100.0,0,True,1,down,0.16666666666666666,16,0,0.29723750008270144,0.29723750008270144,0.7668324999976903,True,far-rnd1,10,3,2,1.875,1,down,4,0
65,3,True,3.088016400113702,33.0,100.0,800.0,15,True,2,up,0.16666666666666666,20,0.25684379995800555,0.3649413001257926,0.6217851000837982,0.4317058001179248,True,far-240,10,6,5,3.75,1,up,8,0
66,1,True,5.555218799971044,33.0,100.0,800.0,5,True,2,up,0.16666666666666666,16,0.08964730007573962,0.30250119999982417,0.3921485000755638,0.7487377000506967,False,far-080,10,1,0,0.625,1,up,8,0
67,4,True,2.529502199962735,33.0,800.0,100.0,0,True,3,down,0.16666666666666666,32,0,0.580945200053975,0.580945200053975,0.7221210000570863,True,far-rnd3,10,1,1,0.625,1,down,4,0
68,1,True,31.406864099903032,33.0,100.0,800.0,0,True,2,up,0.16666666666666666,8,0,0.16234729997813702,0.16234729997813702,1.005470700096339,True,far-000,10,5,4,3.125,1,up,8,0
69,4,True,2.278894699877128,33.0,33.0,100.0,0,False,0,up,0.16666666666666666,28,0,0.47362509998492897,0.47362509998492897,0.586515799863264,False,far-rnd0,10,1,0,0.625,1,up,8,0
70,4,True,3.024948100093752,33.0,100.0,800.0,10,True,2,up,0.16666666666666666,8,0.18070119991898537,0.18012319994159043,0.3608243998605758,0.8229651001747698,True,far-160,10,4,2,2.5,1,up,8,0
71,1,True,3.0652649998664856,33.0,800.0,100.0,0,True,3,down,0.16666666666666666,32,0,0.5329902998637408,0.5329902998637408,0.6432233999948949,True,far-rnd3,11,2,2,1.25,1,down,4,0
72,2,True,3.0188708000350744,33.0,100.0,800.0,0,True,2,up,0.16666666666666666,8,0,0.16236199997365475,0.16236199997365475,1.660353200044483,False,far-000,11,6,4,3.75,1,up,8,0
73,3,True,7.559692500159144,33.0,50.0,100.0,0,True,1,down,0.16666666666666666,16,0,0.2961170000489801,0.2961170000489801,0.5663013001903892,True,far-rnd1,11,4,3,2.5,1,down,4,0
74,3,True,1.8019628999754786,33.0,100.0,800.0,15,True,2,down,0.16666666666666666,16,0.2568673000205308,0.29976360010914505,0.5566309001296759,0.6944514999631792,True,far-240,11,1,1,0.625,1,down,4,0
75,3,True,1.2348937999922782,33.0,100.0,800.0,5,True,2,up,0.16666666666666666,16,0.0912143001332879,0.31321769999340177,0.4044320001266897,0.8382013000082225,False,far-080,11,2,0,1.25,1,up,8,0
76,5,True,3.8604669999331236,33.0,100.0,800.0,10,True,2,up,0.16666666666666666,8,0.18071620003320277,0.1848025000654161,0.36551870009861887,1.3528654999099672,True,far-160,11,5,3,3.125,1,up,8,0
77,4,True,11.554327899822965,33.0,33.0,100.0,0,False,0,up,0.16666666666666666,28,0,0.4746580000501126,0.4746580000501126,0.6714679999276996,True,far-rnd0,11,2,1,1.25,1,up,8,0
78,2,True,2.4926213999278843,33.0,50.0,100.0,0,True,1,down,0.16666666666666666,16,0,0.28712500003166497,0.28712500003166497,0.764194899937138,True,far-rnd1,12,5,4,3.125,1,down,4,0
79,3,True,3.3829626999795437,33.0,33.0,100.0,0,False,0,up,0.16666666666666666,28,0,0.4749444001354277,0.4749444001354277,0.5038523999974132,True,far-rnd0,12,3,2,1.875,1,up,8,0
80,1,True,3.8921517999842763,33.0,100.0,800.0,0,True,2,up,0.16666666666666666,8,0,0.1590444000903517,0.1590444000903517,1.1149656001944095,False,far-000,12,7,4,4.375,1,up,8,0
81,1,True,2.930238600121811,33.0,100.0,800.0,15,True,2,down,0.16666666666666666,16,0.25138729996979237,0.29930850001983345,0.5506957999896258,1.2543678998481482,True,far-240,12,2,2,1.25,1,down,4,0
82,3,True,2.721375700086355,33.0,800.0,100.0,0,True,3,down,0.16666666666666666,32,0,0.5491865000221878,0.5491865000221878,0.6505996000487357,True,far-rnd3,12,3,3,1.875,1,down,4,0
83,2,True,1.1747612999752164,33.0,100.0,800.0,10,True,2,up,0.16666666666666666,8,0.16921680001541972,0.18471669987775385,0.3539334998931736,1.0580970998853445,False,far-160,12,6,3,3.75,1,up,8,0
84,2,True,2.304001399781555,33.0,100.0,800.0,5,True,2,up,0.16666666666666666,24,0.09867279999889433,0.5677833999507129,0.6664561999496073,0.3775486999657005,True,far-080,12,1,1,0.625,1,up,8,0
85,2,True,1.904743499821052,33.0,50.0,100.0,0,True,1,down,0.16666666666666666,16,0,0.289422299945727,0.289422299945727,1.1240970001090318,False,far-rnd1,13,6,4,3.75,1,down,4,0
86,3,True,2.105189599795267,33.0,800.0,100.0,0,True,3,down,0.16666666666666666,28,0,0.4834060000721365,0.4834060000721365,0.8134457000996917,False,far-rnd3,13,1,0,0.625,1,down,4,0
87,1,True,3.3690655000973493,33.0,100.0,800.0,10,True,2,up,0.16666666666666666,8,0.17284819995984435,0.17568819993175566,0.3485363998916,0.9258602999616414,True,far-160,13,7,4,4.375,1,up,8,0
88,1,True,2.4570494999643415,33.0,100.0,800.0,15,True,2,down,0.16666666666666666,16,0.2524180000182241,0.3017288998235017,0.5541468998417258,1.404991899849847,True,far-240,13,3,3,1.875,1,down,4,0
89,1,True,3.1945438999682665,33.0,33.0,100.0,0,False,0,up,0.16666666666666666,28,0,0.4607429001480341,0.4607429001480341,2.422925299964845,False,far-rnd0,13,4,2,2.5,1,up,8,0
90,2,True,1.6628886999096721,33.0,100.0,800.0,5,True,2,up,0.16666666666666666,24,0.0984718999825418,0.431346699828282,0.5298185998108238,0.599265200085938,True,far-080,13,2,2,1.25,1,up,8,0
91,2,True,2.5858878998551518,33.0,100.0,800.0,0,True,2,up,0.16666666666666666,8,0,0.16662280005402863,0.16662280005402863,0.9011979999486357,False,far-000,13,8,4,5.0,1,up,8,0
92,2,True,1.7841646000742912,33.0,800.0,100.0,0,True,3,down,0.16666666666666666,28,0,0.4743455001153052,0.4743455001153052,0.9929698999039829,True,far-rnd3,14,2,1,1.25,1,down,4,0
93,2,True,1.7755188001319766,33.0,100.0,800.0,15,True,2,down,0.16666666666666666,12,0.25374650000594556,0.25005649984814227,0.5038029998540878,0.9858893000055104,False,far-240,14,1,0,0.625,1,down,4,0
94,1,True,4.26792009989731,33.0,50.0,100.0,0,True,1,down,0.16666666666666666,16,0,0.28127939999103546,0.28127939999103546,0.9575215999502689,True,far-rnd1,14,7,5,4.375,1,down,4,0
95,2,True,2.268342199968174,33.0,33.0,100.0,0,False,0,up,0.16666666666666666,28,0,0.46374989999458194,0.46374989999458194,0.9596569000277668,True,far-rnd0,14,5,3,3.125,1,up,8,0
96,2,True,4.278293299954385,33.0,100.0,800.0,10,True,2,up,0.16666666666666666,8,0.17403430002741516,0.16888430016115308,0.34291860018856823,1.4152958001941442,True,far-160,14,8,5,5.0,1,up,8,0
97,1,True,2.930972999893129,33.0,100.0,800.0,0,True,2,up,0.16666666666666666,8,0,0.16258989996276796,0.16258989996276796,1.929879799950868,False,far-000,14,9,4,5.625,1,up,8,1
98,1,True,2.691767699783668,33.0,100.0,800.0,5,True,2,up,0.16666666666666666,24,0.08984789997339249,0.43027360015548766,0.5201215001288801,0.623559300089255,True,far-080,14,3,3,1.875,1,up,8,0
99,3,True,3.089205500204116,33.0,100.0,800.0,0,True,2,up,0.16666666666666666,12,0,0.3697322001680732,0.3697322001680732,0.5116687000263482,True,far-000,15,1,1,0.625,1,up,4,0
100,2,True,2.6480690001044422,33.0,50.0,100.0,0,True,1,down,0.16666666666666666,16,0,0.2825422000605613,0.2825422000605613,0.8454153998754919,False,far-rnd1,15,8,5,5.0,1,down,4,0
101,1,True,2.8594627999700606,33.0,100.0,800.0,15,True,2,down,0.16666666666666666,12,0.24838340003043413,0.23402370000258088,0.482407100033015,0.8227526000700891,True,far-240,15,2,1,1.25,1,down,4,0
102,2,True,1.9753473000600934,33.0,33.0,100.0,0,False,0,up,0.16666666666666666,28,0,0.4650637998711318,0.4650637998711318,1.0102554000914097,True,far-rnd0,15,6,4,3.75,1,up,8,0
103,3,True,2.8470146998297423,33.0,800.0,100.0,0,True,3,down,0.16666666666666666,28,0,0.48724499996751547,0.48724499996751547,0.37735139997676015,True,far-rnd3,15,3,2,1.875,1,down,4,0
104,1,True,2.7414411001373082,33.0,100.0,800.0,5,True,2,down,0.16666666666666666,20,0.09252740000374615,0.3659030001144856,0.4584304001182318,0.743535100016743,False,far-080,15,1,0,0.625,1,down,4,0
105,1,True,3.260509999934584,33.0,100.0,800.0,10,True,2,up,0.16666666666666666,8,0.17179460008628666,0.1744175001513213,0.34621210023760796,0.8513485000003129,True,far-160,15,9,6,5.625,1,up,8,1
106,1,True,3.375122900120914,33.0,100.0,800.0,15,True,2,down,0.16666666666666666,12,0.25304659991525114,0.2367163000162691,0.4897628999315202,0.6007526000030339,True,far-240,16,3,2,1.875,1,down,4,0
107,1,True,4.999589800136164,33.0,50.0,100.0,0,True,1,down,0.16666666666666666,16,0,0.31881470000371337,0.31881470000371337,1.0109461001120508,False,far-rnd1,16,9,5,5.625,1,down,4,1
108,3,True,1.8727860001381487,33.0,800.0,100.0,0,True,3,down,0.16666666666666666,28,0,0.4853195999749005,0.4853195999749005,0.7176488998811692,False,far-rnd3,16,4,2,2.5,1,down,4,0
109,3,True,2.161975300172344,33.0,33.0,100.0,0,False,0,up,0.16666666666666666,28,0,0.4693411001935601,0.4693411001935601,0.7150437000673264,False,far-rnd0,16,7,4,4.375,1,up,8,0
110,2,True,1.7897115999367088,33.0,100.0,800.0,10,True,2,up,0.16666666666666666,8,0.1686160999815911,0.17822459992021322,0.34684069990180433,0.8105562999844551,True,far-160,16,10,7,6.25,1,up,8,1
111,2,True,1.9036122001707554,33.0,100.0,800.0,0,True,2,up,0.16666666666666666,12,0,0.23137339996173978,0.23137339996173978,1.5501220999285579,False,far-000,16,2,1,1.25,1,up,4,0
112,1,True,4.849451599875465,33.0,100.0,800.0,5,True,2,down,0.16666666666666666,20,0.08996289991773665,0.36554699996486306,0.4555098998825997,0.5496074999682605,True,far-080,16,2,1,1.25,1,down,4,0
113,3,True,2.5879265000112355,33.0,100.0,800.0,0,True,2,up,0.16666666666666666,12,0,0.23304159985855222,0.23304159985855222,1.1505750000942498,False,far-000,17,3,1,1.875,1,up,4,0
114,2,True,1.2435562999453396,33.0,100.0,800.0,15,True,2,down,0.16666666666666666,12,0.24858710006810725,0.2401746001560241,0.48876170022413135,0.9862431001383811,True,far-240,17,4,3,2.5,1,down,4,0
115,2,True,1.5274207000620663,33.0,800.0,100.0,0,True,3,down,0.16666666666666666,28,0,0.4780192000325769,0.4780192000325769,0.5785796998534352,True,far-rnd3,17,5,3,3.125,1,down,4,0
116,1,True,5.631199799943715,33.0,50.0,100.0,0,True,1,down,0.16666666666666666,16,0,0.2856720997951925,0.2856720997951925,0.8569078999571502,True,far-rnd1,17,10,6,6.25,1,down,4,1
117,1,True,2.1374093999620527,33.0,33.0,100.0,0,False,0,up,0.16666666666666666,28,0,0.4589309000875801,0.4589309000875801,0.4645478001330048,True,far-rnd0,17,8,5,5.0,1,up,8,0
118,1,True,2.317849999992177,33.0,100.0,800.0,10,True,2,up,0.16666666666666666,8,0.1692324997857213,0.1801934998948127,0.349425999680534,0.7726360999513417,False,far-160,17,11,7,6.875,1,up,8,1
119,1,True,2.318043600069359,33.0,100.0,800.0,5,True,2,down,0.16666666666666666,20,0.09134840010665357,0.3734387999866158,0.46478720009326935,0.5385165999177843,True,far-080,17,3,2,1.875,1,down,4,0
120,2,True,2.242235300131142,33.0,100.0,800.0,0,True,2,up,0.16666666666666666,12,0,0.2283446998335421,0.2283446998335421,1.3665765000041574,False,far-000,18,4,1,2.5,1,up,4,0
121,2,True,4.238066799938679,33.0,800.0,100.0,0,True,3,down,0.16666666666666666,28,0,0.4821475001517683,0.4821475001517683,0.4416313001420349,True,far-rnd3,18,6,4,3.75,1,down,4,0
122,4,True,4.567847900092602,33.0,100.0,800.0,10,True,2,up,0.16666666666666666,8,0.1755711999721825,0.19248869991861284,0.36805989989079535,1.2734250999055803,True,far-160,18,12,8,7.5,1,up,8,1
123,1,True,7.236625900026411,33.0,50.0,100.0,0,True,1,down,0.16666666666666666,16,0,0.2821692998986691,0.2821692998986691,0.7057733000256121,True,far-rnd1,18,11,7,6.875,1,down,4,1
124,1,True,3.343007099814713,33.0,100.0,800.0,5,True,2,down,0.16666666666666666,20,0.09453090000897646,0.36854179995134473,0.4630726999603212,0.6199886000249535,True,far-080,18,4,3,2.5,1,down,4,0
125,1,True,4.213611799990758,33.0,100.0,800.0,15,True,2,down,0.16666666666666666,12,0.2532188000623137,0.2455746999476105,0.4987935000099242,1.2797948999796063,False,far-240,18,5,3,3.125,1,down,4,0
126,3,True,3.3325829999521375,33.0,33.0,100.0,0,False,0,up,0.16666666666666666,28,0,0.4704621999990195,0.4704621999990195,0.638756399974227,True,far-rnd0,18,9,6,5.625,1,up,8,1
127,2,True,2.8503419999033213,33.0,100.0,800.0,5,True,2,down,0.16666666666666666,20,0.09073029994033277,0.3745265998877585,0.46525689982809126,0.9516633001621813,False,far-080,19,5,3,3.125,1,down,4,0
128,3,True,3.2691315999254584,33.0,100.0,800.0,10,True,2,up,0.16666666666666666,8,0.1712489000055939,0.1739238000009209,0.3451727000065148,0.8762034000828862,False,far-160,19,13,8,8.125,1,up,8,1
129,2,True,3.248660999815911,33.0,100.0,800.0,15,True,2,down,0.16666666666666666,12,0.24961329996585846,0.3844208000227809,0.6340340999886394,0.21667849994264543,True,far-240,19,6,4,3.75,1,down,4,0
130,1,True,4.179589899955317,33.0,800.0,100.0,0,True,3,down,0.16666666666666666,28,0,0.5598196999635547,0.5598196999635547,0.8656497001647949,False,far-rnd3,19,7,4,4.375,1,down,4,0
131,2,True,7.846664600074291,33.0,50.0,100.0,0,True,1,down,0.16666666666666666,16,0,0.28934370004571974,0.28934370004571974,0.9093553000129759,True,far-rnd1,19,12,8,7.5,1,down,4,1
132,3,True,4.6115777001250535,33.0,33.0,100.0,0,False,0,up,0.16666666666666666,28,0,0.4680818999186158,0.4680818999186158,0.5681860998738557,True,far-rnd0,19,10,7,6.25,1,up,8,1
133,4,True,3.7450382001698017,33.0,100.0,800.0,0,True,2,up,0.16666666666666666,16,0,0.3091573000419885,0.3091573000419885,1.149263400118798,False,far-000,19,1,0,0.625,1,up,4,0
134,2,True,3.0138803001027554,33.0,100.0,800.0,0,True,2,up,0.16666666666666666,16,0,0.29248799988999963,0.29248799988999963,0.8453643000684679,True,far-000,20,2,1,1.25,1,up,4,0
135,1,True,3.6441980998497456,33.0,100.0,800.0,10,True,2,up,0.16666666666666666,8,0.1660861000418663,0.17887530010193586,0.34496140014380217,0.7710547000169754,True,far-160,20,14,9,8.75,1,up,8,1
136,3,True,2.8507515999954194,33.0,800.0,100.0,0,True,3,down,0.16666666666666666,28,0,0.47713869996368885,0.47713869996368885,0.6457435998599976,False,far-rnd3,20,8,4,5.0,1,down,4,0
137,4,True,3.307887600036338,33.0,50.0,100.0,0,True,1,down,0.16666666666666666,16,0,0.2903160999994725,0.2903160999994725,1.4140121000818908,False,far-rnd1,20,13,8,8.125,1,down,4,1
138,3,True,2.7286871999967843,33.0,100.0,800.0,15,True,2,down,0.16666666666666666,12,0.2550955000333488,0.24493639986030757,0.5000318998936564,0.9228198998607695,True,far-240,20,7,5,4.375,1,down,4,0
139,2,True,3.4549124999903142,33.0,33.0,100.0,0,False,0,up,0.16666666666666666,28,0,0.46731460001319647,0.46731460001319647,3.794338700128719,True,far-rnd0,20,11,8,6.875,1,up,8,1
140,1,True,3.663656000047922,33.0,100.0,800.0,5,True,2,down,0.16666666666666666,20,0.08769269986078143,0.372517499839887,0.46021019970066845,1.4432934001088142,True,far-080,20,6,4,3.75,1,down,4,0
141,1,True,2.427420400083065,33.0,50.0,100.0,0,True,1,down,0.16666666666666666,16,0,0.28462649998255074,0.28462649998255074,0.6202728999778628,True,far-rnd1,21,14,9,8.75,1,down,4,1
142,2,True,1.6055500998627394,33.0,33.0,100.0,0,False,0,down,0.16666666666666666,26,0,0.43456929991953075,0.43456929991953075,0.4471056000329554,True,far-rnd0,21,1,1,0.625,1,down,2,0
143,3,True,1.3800305998884141,33.0,100.0,800.0,0,True,2,up,0.16666666666666666,16,0,0.356018700171262,0.356018700171262,1.717568000080064,True,far-000,21,3,2,1.875,1,up,4,0
144,3,True,2.4851862001232803,33.0,800.0,100.0,0,True,3,down,0.16666666666666666,28,0,0.48126130015589297,0.48126130015589297,3.2239616999868304,False,far-rnd3,21,9,4,5.625,1,down,4,1
145,1,True,3.192861500196159,33.0,100.0,800.0,5,True,2,down,0.16666666666666666,20,0.08817160013131797,0.3670776002109051,0.45524920034222305,0.9123768999706954,True,far-080,21,7,5,4.375,1,down,4,0
146,1,True,3.1062320999335498,33.0,100.0,800.0,10,True,2,up,0.16666666666666666,8,0.28079740004613996,0.1738376000430435,0.45463500008918345,0.838432100135833,True,far-160,21,15,10,9.375,1,up,8,1
147,1,True,2.372395700076595,33.0,100.0,800.0,15,True,2,down,0.16666666666666666,12,0.24872369994409382,0.24240020010620356,0.4911239000502974,0.537363399984315,False,far-240,21,8,5,5.0,1,down,4,0
148,2,True,1.4016920998692513,33.0,33.0,100.0,0,False,0,down,0.16666666666666666,26,0,0.4347981000319123,0.4347981000319123,0.45292810001410544,True,far-rnd0,22,2,2,1.25,2,down,2,0
149,4,True,2.486696199979633,33.0,100.0,800.0,0,True,2,up,0.16666666666666666,16,0,0.30369660002179444,0.30369660002179444,1.601319900015369,False,far-000,22,4,2,2.5,1,up,4,0
150,1,True,3.0855378000997007,33.0,100.0,800.0,15,True,2,down,0.16666666666666666,12,0.24850460002198815,0.23883630009368062,0.4873409001156688,0.5798857000190765,False,far-240,22,9,5,5.625,1,down,4,1
151,1,True,5.7472433999646455,33.0,100.0,800.0,10,True,2,up,0.16666666666666666,8,0.1695101000368595,0.1767221000045538,0.3462322000414133,0.8815866000950336,True,far-160,22,16,11,10.0,1,up,8,1
152,2,True,3.545008299872279,33.0,100.0,800.0,5,True,2,down,0.16666666666666666,20,0.09498340007849038,0.36518860002979636,0.46017200010828674,0.645843599922955,True,far-080,22,8,6,5.0,1,down,4,0
153,5,True,2.1699365999083966,33.0,50.0,100.0,0,True,1,down,0.16666666666666666,16,0,0.3027039000298828,0.3027039000298828,0.6288627001922578,True,far-rnd1,22,15,10,9.375,1,down,4,1
154,1,True,2.440374600002542,33.0,800.0,100.0,0,True,3,up,0.16666666666666666,29,0,0.49250370007939637,0.49250370007939637,0.7625932001974434,False,far-rnd3,22,1,0,0.625,1,up,1,0
155,1,True,2.714865199988708,33.0,100.0,800.0,0,True,2,up,0.16666666666666666,16,0,0.28517960011959076,0.28517960011959076,0.8762479000724852,False,far-000,23,5,2,3.125,1,up,4,0
156,3,True,2.2647671999875456,33.0,800.0,100.0,0,True,3,up,0.16666666666666666,29,0,0.5033969001378864,0.5033969001378864,0.5214021999854594,True,far-rnd3,23,2,1,1.25,2,up,1,0
157,2,True,2.1396654001437128,33.0,100.0,800.0,15,True,2,down,0.16666666666666666,12,0.2506496000569314,0.2478702999651432,0.4985199000220746,0.49320239992812276,True,far-240,23,10,6,6.25,1,down,4,1
158,2,True,2.074134900001809,33.0,50.0,100.0,0,True,1,down,0.16666666666666666,16,0,0.2876001000404358,0.2876001000404358,0.9447759999893606,False,far-rnd1,23,16,10,10.0,1,down,4,1
159,1,True,2.7858607000671327,33.0,100.0,800.0,10,True,2,up,0.16666666666666666,8,0.17416439997032285,0.18377220002003014,0.357936599990353,1.1205408000387251,False,far-160,23,17,11,10.625,1,up,8,2
160,2,True,2.8396213999949396,33.0,100.0,800.0,5,True,2,down,0.16666666666666666,20,0.09064930002205074,0.37344629992730916,0.4640955999493599,0.5275820000097156,True,far-080,23,9,7,5.625,1,down,4,1
161,3,True,1.9409099000040442,33.0,33.0,100.0,0,False,0,down,0.16666666666666666,26,0,0.4440198000520468,0.4440198000520468,0.529127299785614,True,far-rnd0,23,3,3,1.875,2,down,2,0
162,2,True,1.6720314000267535,33.0,100.0,800.0,15,True,2,down,0.16666666666666666,12,0.2597617001738399,0.2434705998748541,0.503232300048694,0.5656985999085009,True,far-240,24,11,7,6.875,1,down,4,1
163,2,True,1.3111394001170993,33.0,800.0,100.0,0,True,3,up,0.16666666666666666,29,0,0.4933006998617202,0.4933006998617202,1.0347941999789327,False,far-rnd3,24,3,1,1.875,2,up,1,0
164,1,True,2.8840468998532742,33.0,100.0,800.0,5,True,2,down,0.16666666666666666,18,0.08960479986853898,0.33711210009641945,0.42671689996495843,2.5247150999493897,False,far-080,24,1,0,0.625,1,down,2,0
165,4,True,2.150015200022608,33.0,50.0,100.0,0,True,1,down,0.16666666666666666,16,0,0.30727269989438355,0.30727269989438355,1.0017812000587583,False,far-rnd1,24,17,10,10.625,1,down,4,2
166,2,True,3.0060721000190824,33.0,33.0,100.0,0,False,0,down,0.16666666666666666,26,0,0.4349689001683146,0.4349689001683146,0.7181708000134677,False,far-rnd0,24,4,3,2.5,2,down,2,0
167,1,True,1.8715378001797944,33.0,100.0,800.0,10,True,2,up,0.16666666666666666,8,0.1733589000068605,0.17206090013496578,0.34541980014182627,1.3666163000743836,False,far-160,24,18,11,11.25,1,up,8,2
168,2,True,1.26230589998886,33.0,100.0,800.0,0,True,2,up,0.16666666666666666,24,0,0.4207565998658538,0.4207565998658538,1.2769488000776619,True,far-000,24,1,1,0.625,1,up,8,0
169,2,True,1.3901573999319226,33.0,100.0,800.0,5,True,2,down,0.16666666666666666,18,0.09298059996217489,0.3283888997975737,0.4213694997597486,0.5548769000452012,True,far-080,25,2,1,1.25,2,down,2,0
170,2,True,4.540195000125095,33.0,100.0,800.0,0,True,2,up,0.16666666666666666,24,0,0.42758590006269515,0.42758590006269515,0.759051000000909,True,far-000,25,2,2,1.25,1,up,8,0
171,1,True,5.709724300075322,33.0,33.0,100.0,0,False,0,down,0.16666666666666666,26,0,0.43052710010670125,0.43052710010670125,0.47743289987556636,True,far-rnd0,25,5,4,3.125,2,down,2,0
172,2,True,2.8678286999929696,33.0,800.0,100.0,0,True,3,up,0.16666666666666666,29,0,0.4921027000527829,0.4921027000527829,0.7075592000037432,True,far-rnd3,25,4,2,2.5,2,up,1,0
173,1,True,4.027456300100312,33.0,100.0,800.0,15,True,2,down,0.16666666666666666,12,0.24627539981156588,0.31317780003882945,0.5594531998503953,0.6797176999971271,True,far-240,25,12,8,7.5,1,down,4,1
174,2,True,2.561513200169429,33.0,100.0,800.0,10,True,2,up,0.16666666666666666,8,0.1755868000909686,0.17920579994097352,0.35479260003194213,0.5973139998968691,True,far-160,25,19,12,11.875,1,up,8,2
175,1,True,4.849531699903309,33.0,50.0,100.0,0,True,1,down,0.16666666666666666,16,0,0.2886045000050217,0.2886045000050217,0.6040372001007199,True,far-rnd1,25,18,11,11.25,1,down,4,2
176,2,True,1.9401412999723107,33.0,100.0,800.0,15,True,2,down,0.16666666666666666,12,0.25291699985973537,0.24959470005705953,0.5025116999167949,0.708921100012958,True,far-240,26,13,9,8.125,1,down,4,1
177,2,True,1.4822277000639588,33.0,100.0,800.0,0,True,2,up,0.16666666666666666,24,0,0.4247151000890881,0.4247151000890881,0.6652760999277234,True,far-000,26,3,3,1.875,1,up,8,0
178,1,True,2.71785240015015,33.0,100.0,800.0,5,True,2,down,0.16666666666666666,18,0.08844269998371601,0.33602680009789765,0.42446950008161366,0.8503000000491738,True,far-080,26,3,2,1.875,2,down,2,0
179,1,True,3.2195854000747204,33.0,800.0,100.0,0,True,3,up,0.16666666666666666,29,0,0.48872680007480085,0.48872680007480085,1.0035282999742776,False,far-rnd3,26,5,2,3.125,2,up,1,0
180,3,True,3.1957314000464976,33.0,50.0,100.0,0,True,1,down,0.16666666666666666,16,0,0.3044376999605447,0.3044376999605447,1.0430135999340564,False,far-rnd1,26,19,11,11.875,1,down,4,2
181,2,True,1.9739071999210864,33.0,33.0,100.0,0,False,0,down,0.16666666666666666,26,0,0.43448220007121563,0.43448220007121563,0.45524030015803874,True,far-rnd0,26,6,5,3.75,2,down,2,0
182,1,True,3.381448999978602,33.0,100.0,800.0,10,True,2,up,0.16666666666666666,8,0.17239649989642203,0.1785611999221146,0.35095769981853664,0.8212888000998646,True,far-160,26,20,13,12.5,1,up,8,2
183,3,True,1.9627782998140901,33.0,100.0,800.0,5,True,2,down,0.16666666666666666,18,0.09905269998125732,0.34048389992676675,0.4395365999080241,0.7634535999968648,True,far-080,27,4,3,2.5,2,down,2,0
184,2,True,2.4658158000092953,33.0,100.0,800.0,0,True,2,down,0.16666666666666666,20,0,0.35799449984915555,0.35799449984915555,1.0079989000223577,False,far-000,27,1,0,0.625,1,down,4,0
185,4,True,3.591747999889776,33.0,100.0,800.0,15,True,2,down,0.16666666666666666,12,0.2542884999420494,0.26248509995639324,0.5167735998984426,0.5243098998907954,True,far-240,27,14,10,8.75,1,down,4,1
186,3,True,6.363834700081497,33.0,50.0,100.0,0,True,1,down,0.16666666666666666,16,0,0.2906933000776917,0.2906933000776917,1.0191190999466926,False,far-rnd1,27,20,11,12.5,1,down,4,2
187,1,True,4.059736100025475,33.0,800.0,100.0,0,True,3,up,0.16666666666666666,29,0,0.4907591000664979,0.4907591000664979,1.1622203001752496,False,far-rnd3,27,6,2,3.75,2,up,1,0
188,3,True,3.8954723000060767,33.0,33.0,100.0,0,False,0,down,0.16666666666666666,26,0,0.44094700017012656,0.44094700017012656,0.6752847000025213,True,far-rnd0,27,7,6,4.375,2,down,2,0
189,2,True,2.3051269999705255,33.0,100.0,800.0,10,True,2,up,0.16666666666666666,8,0.17385910009033978,0.1738994000479579,0.3477585001382977,1.147126799914986,False,far-160,27,21,13,13.125,1,up,8,2
190,4,True,2.4420935998205096,33.0,100.0,800.0,0,True,2,down,0.16666666666666666,20,0,0.3682843998540193,0.3682843998540193,1.1471156999468803,False,far-000,28,2,0,1.25,1,down,4,0
191,3,True,1.877521499991417,33.0,50.0,100.0,0,True,1,up,0.16666666666666666,17,0,0.3086119999643415,0.3086119999643415,1.0193721000105143,False,far-rnd1,28,1,0,0.625,1,up,1,0
192,1,True,2.31661199987866,33.0,100.0,800.0,15,True,2,down,0.16666666666666666,10,0.2513513001613319,0.21117080003023148,0.46252210019156337,1.0223954999819398,False,far-240,28,1,0,0.625,1,down,2,0
193,4,True,2.145764400018379,33.0,100.0,800.0,5,True,2,down,0.16666666666666666,18,0.09728769981302321,0.33880809997208416,0.4360957997851074,0.6305986000224948,True,far-080,28,5,4,3.125,2,down,2,0
194,2,True,1.7757665000390261,33.0,100.0,800.0,10,True,2,up,0.16666666666666666,8,0.173612599959597,0.17489139991812408,0.34850399987772107,0.8087394998874515,False,far-160,28,22,13,13.75,1,up,8,2
195,2,True,1.4594499999657273,33.0,33.0,100.0,0,False,0,down,0.16666666666666666,26,0,0.4333275998942554,0.4333275998942554,0.4621935999020934,True,far-rnd0,28,8,7,5.0,2,down,2,0
196,2,True,2.277754799928516,33.0,800.0,100.0,0,True,3,up,0.16666666666666666,29,0,0.4985871999524534,0.4985871999524534,0.6756011000834405,True,far-rnd3,28,7,3,4.375,2,up,1,0
197,1,True,4.37422090000473,33.0,50.0,100.0,0,True,1,up,0.16666666666666666,17,0,0.30086880014277995,0.30086880014277995,0.6257132000755519,True,far-rnd1,29,2,1,1.25,3,up,1,0
198,1,True,3.388893799856305,33.0,100.0,800.0,0,True,2,up,0.16666666666666666,22,0,0.38774919998832047,0.38774919998832047,0.7533034000080079,False,far-000,29,1,0,0.625,1,up,2,0
199,1,True,3.703314400045201,33.0,800.0,100.0,0,True,3,up,0.16666666666666666,29,0,0.48945969995111227,0.48945969995111227,1.9191268000286072,False,far-rnd3,29,8,3,5.0,2,up,1,0
200,1,True,2.898069699993357,33.0,33.0,100.0,0,False,0,down,0.16666666666666666,26,0,0.42932759993709624,0.42932759993709624,0.46680229995399714,True,far-rnd0,29,9,8,5.625,2,down,2,1
201,1,True,2.19612059998326,33.0,100.0,800.0,15,True,2,down,0.16666666666666666,10,0.2496026000007987,0.2072960000950843,0.456898600095883,0.48070780001580715,True,far-240,29,2,1,1.25,2,down,2,0
202,3,True,3.1098448999691755,33.0,100.0,800.0,10,True,2,up,0.16666666666666666,8,0.1762480998877436,0.19165769987739623,0.3679057997651398,0.5972056998871267,True,far-160,29,23,14,14.375,1,up,8,2
203,4,True,2.7474739998579025,33.0,100.0,800.0,5,True,2,down,0.16666666666666666,18,0.10051769996061921,0.35196360014379025,0.45248130010440946,0.5846545998938382,True,far-080,29,6,5,3.75,2,down,2,0
204,3,True,4.972345199901611,33.0,50.0,100.0,0,True,1,up,0.16666666666666666,17,0,0.3076090000104159,0.3076090000104159,0.5050794000271708,True,far-rnd1,30,3,2,1.875,3,up,1,0
205,4,True,2.965285799931735,33.0,100.0,800.0,5,True,2,down,0.16666666666666666,18,0.10302760009653866,0.35384869994595647,0.45687630004249513,0.5371596000622958,True,far-080,30,7,6,4.375,2,down,2,0
206,1,True,2.4655402000062168,33.0,100.0,800.0,0,True,2,up,0.16666666666666666,22,0,0.38777110003866255,0.38777110003866255,0.6393909000325948,True,far-000,30,2,1,1.25,2,up,2,0
207,1,True,2.1181785999797285,33.0,33.0,100.0,0,False,0,down,0.16666666666666666,25,0,0.4153856998309493,0.4153856998309493,0.5194989999290556,True,far-rnd0,30,1,1,0.625,2,down,1,0
208,3,True,2.1681842000689358,33.0,100.0,800.0,15,True,2,down,0.16666666666666666,10,0.25255979993380606,0.22437519999220967,0.47693499992601573,2.395462399814278,True,far-240,30,3,2,1.875,2,down,2,0
209,3,True,1.5420023000333458,33.0,100.0,800.0,10,True,2,up,0.16666666666666666,8,0.17305590002797544,0.2426300998777151,0.41568599990569055,0.7880526999942958,False,far-160,30,24,14,15.0,1,up,8,2
210,1,True,8.43842179980129,33.0,800.0,100.0,0,True,3,up,0.16666666666666666,29,0,0.4938181000761688,0.4938181000761688,0.6233693000394851,True,far-rnd3,30,9,4,5.625,2,up,1,1
211,2,True,3.5150097999721766,33.0,100.0,800.0,0,True,2,up,0.16666666666666666,22,0,0.3904983000829816,0.3904983000829816,1.0545981000177562,False,far-000,31,3,1,1.875,2,up,2,0
212,3,True,1.741819999879226,33.0,50.0,100.0,0,True,1,up,0.16666666666666666,17,0,0.30327769997529685,0.30327769997529685,0.5200691998470575,True,far-rnd1,31,4,3,2.5,3,up,1,0
213,2,True,1.3178235001396388,33.0,800.0,100.0,0,True,3,up,0.16666666666666666,29,0,0.4983040001243353,0.4983040001243353,0.6976617998443544,False,far-rnd3,31,10,4,6.25,2,up,1,1
214,3,True,2.472002499969676,33.0,100.0,800.0,5,True,2,down,0.16666666666666666,18,0.09421680006198585,0.34246809990145266,0.4366848999634385,0.6180837999563664,True,far-080,31,8,7,5.0,2,down,2,0
215,1,True,3.3428946000058204,33.0,33.0,100.0,0,False,0,down,0.16666666666666666,25,0,0.41527910018339753,0.41527910018339753,0.6729403999634087,False,far-rnd0,31,2,1,1.25,2,down,1,0
216,2,True,1.9398016999475658,33.0,100.0,800.0,10,True,2,up,0.16666666666666666,8,0.17324679996818304,0.17455490003339946,0.3478017000015825,0.8422369000036269,False,far-160,31,25,14,15.625,1,up,8,3
217,2,True,1.1048026999924332,33.0,100.0,800.0,15,True,2,down,0.16666666666666666,10,0.25646819989196956,0.21206049993634224,0.4685286998283118,0.8704941000323743,True,far-240,31,4,3,2.5,2,down,2,0
218,4,True,4.8936403000261635,33.0,33.0,100.0,0,False,0,down,0.16666666666666666,25,0,0.4274882001336664,0.4274882001336664,0.5619143999647349,True,far-rnd0,32,3,2,1.875,2,down,1,0
219,2,True,3.495868599973619,33.0,100.0,800.0,0,True,2,up,0.16666666666666666,22,0,0.39392249984666705,0.39392249984666705,0.6997827000450343,True,far-000,32,4,2,2.5,2,up,2,0
220,1,True,3.0584825999103487,33.0,50.0,100.0,0,True,1,up,0.16666666666666666,17,0,0.29898670013062656,0.29898670013062656,0.5960488000418991,True,far-rnd1,32,5,4,3.125,3,up,1,0
221,2,True,2.3029950000345707,33.0,100.0,800.0,10,True,2,up,0.16666666666666666,9,0.1930833999067545,0.1983213999774307,0.3914047998841852,1.1486751998309046,False,far-160,32,1,0,0.625,1,up,1,0
222,2,True,1.1968468001578003,33.0,800.0,100.0,0,True,3,up,0.16666666666666666,30,0,0.5082066000904888,0.5082066000904888,0.4994511001277715,True,far-rnd3,32,1,1,0.625,2,up,1,0
223,3,True,1.8627679001074284,33.0,100.0,800.0,5,True,2,down,0.16666666666666666,18,0.09607740002684295,0.34241049992851913,0.4384878999553621,0.419113100040704,True,far-080,32,9,8,5.625,2,down,2,1
224,3,True,2.2120133999269456,33.0,100.0,800.0,15,True,2,down,0.16666666666666666,10,0.262071100063622,0.22107379999943078,0.4831449000630528,0.8774717999622226,False,far-240,32,5,3,3.125,2,down,2,0
225,3,True,1.9111920001450926,33.0,100.0,800.0,15,True,2,down,0.16666666666666666,10,0.25717610004357994,0.2185363001190126,0.47571240016259253,0.5657520999666303,True,far-240,33,6,4,3.75,2,down,2,0
226,1,True,3.640289800008759,33.0,100.0,800.0,0,True,2,up,0.16666666666666666,22,0,0.39019110007211566,0.39019110007211566,1.0658360000234097,False,far-000,33,5,2,3.125,2,up,2,0
227,2,True,1.5977852998767048,33.0,33.0,100.0,0,False,0,down,0.16666666666666666,25,0,0.41689839982427657,0.41689839982427657,0.5156519000884145,True,far-rnd0,33,4,3,2.5,2,down,1,0
228,4,True,2.584698799997568,33.0,100.0,800.0,5,True,2,down,0.16666666666666666,17,0.10050460021011531,0.3337224000133574,0.4342270002234727,0.31744290003553033,True,far-080,33,1,1,0.625,2,down,1,0
229,2,True,3.668789500137791,33.0,100.0,800.0,10,True,2,up,0.16666666666666666,9,0.1746292000170797,0.19164999993517995,0.36627919995225966,0.7313083000481129,True,far-160,33,2,1,1.25,2,up,1,0
230,1,True,3.781998800113797,33.0,50.0,100.0,0,True,1,up,0.16666666666666666,17,0,0.30572089995257556,0.30572089995257556,0.9078460999298841,False,far-rnd1,33,6,4,3.75,3,up,1,0
231,3,True,2.7435647998936474,33.0,800.0,100.0,0,True,3,up,0.16666666666666666,30,0,0.5200942000374198,0.5200942000374198,0.4345799998845905,True,far-rnd3,33,2,2,1.25,3,up,1,0
232,1,True,2.899845600128174,33.0,100.0,800.0,0,True,2,up,0.16666666666666666,22,0,0.389384200097993,0.389384200097993,0.6481399999465793,False,far-000,34,6,2,3.75,2,up,2,0
233,4,True,3.512449400033802,33.0,100.0,800.0,5,True,2,down,0.16666666666666666,17,0.10462999995797873,0.33141730003990233,0.43604729999788105,0.547689399914816,True,far-080,34,2,2,1.25,2,down,1,0
234,1,True,3.518228800036013,33.0,33.0,100.0,0,False,0,down,0.16666666666666666,25,0,0.4134569999296218,0.4134569999296218,0.4453799999319017,True,far-rnd0,34,5,4,3.125,2,down,1,0
235,1,True,2.336856400128454,33.0,100.0,800.0,15,True,2,down,0.16666666666666666,10,0.249262300087139,0.21241299994289875,0.46167530003003776,0.6982520001474768,True,far-240,34,7,5,4.375,2,down,2,0
236,4,True,1.9013004000298679,33.0,100.0,800.0,10,True,2,up,0.16666666666666666,9,0.17377950018271804,0.2100676998961717,0.3838472000788897,2.400906299939379,True,far-160,34,3,2,1.875,2,up,1,0
237,2,True,1.4245305000804365,33.0,50.0,100.0,0,True,1,up,0.16666666666666666,17,0,0.3058809000067413,0.3058809000067413,0.6612629999872297,True,far-rnd1,34,7,5,4.375,3,up,1,0
238,3,True,3.3242671000771224,33.0,800.0,100.0,0,True,3,up,0.16666666666666666,30,0,0.5158343999646604,0.5158343999646604,0.59653600002639,True,far-rnd3,34,3,3,1.875,3,up,1,0
239,1,True,3.1479399998206645,33.0,100.0,800.0,15,True,2,down,0.16666666666666666,10,0.2504323998000473,0.2007885999046266,0.4512209997046739,0.7268769000656903,True,far-240,35,8,6,5.0,2,down,2,0
240,2,True,3.001216399949044,33.0,800.0,100.0,0,True,3,up,0.16666666666666666,30,0,0.5148475000169128,0.5148475000169128,0.5500696001108736,True,far-rnd3,35,4,4,2.5,3,up,1,0
241,1,True,4.1639518002048135,33.0,100.0,800.0,5,True,2,down,0.16666666666666666,17,0.09332260000519454,0.31758689996786416,0.4109094999730587,0.7617087000980973,False,far-080,35,3,2,1.875,2,down,1,0
242,2,True,0.9698090997990221,33.0,100.0,800.0,10,True,2,up,0.16666666666666666,9,0.17679820000194013,0.1891693000216037,0.36596750002354383,0.8972384999506176,False,far-160,35,4,2,2.5,2,up,1,0
243,1,True,4.6883495999500155,33.0,33.0,100.0,0,False,0,down,0.16666666666666666,25,0,0.41781280003488064,0.41781280003488064,0.6698793999385089,False,far-rnd0,35,6,4,3.75,2,down,1,0
244,1,True,2.3795264000073075,33.0,50.0,100.0,0,True,1,up,0.16666666666666666,17,0,0.30183100001886487,0.30183100001886487,0.5670481000561267,True,far-rnd1,35,8,6,5.0,3,up,1,0
245,1,True,2.7363138999789953,33.0,100.0,800.0,0,True,2,up,0.16666666666666666,22,0,0.3817950999364257,0.3817950999364257,1.4365157999563962,True,far-000,35,7,3,4.375,2,up,2,0
246,1,True,3.0137630000244826,33.0,800.0,100.0,0,True,3,up,0.16666666666666666,30,0,0.5066074000205845,0.5066074000205845,0.437063799938187,True,far-rnd3,36,5,5,3.125,3,up,1,0
247,1,True,2.681102199945599,33.0,100.0,800.0,15,True,2,down,0.16666666666666666,10,0.2522083001676947,0.19973180000670254,0.45194010017439723,0.6499269001651555,False,far-240,36,9,6,5.625,2,down,2,1
248,1,True,2.1782563999295235,33.0,100.0,800.0,10,True,2,up,0.16666666666666666,9,0.1687662999611348,0.18434050003997982,0.3531068000011146,0.5389396001119167,True,far-160,36,5,3,3.125,2,up,1,0
249,1,True,3.59393380000256,33.0,100.0,800.0,0,True,2,up,0.16666666666666666,22,0,0.392297999933362,0.392297999933362,0.5082626999355853,True,far-000,36,8,4,5.0,2,up,2,0
250,2,True,2.5615372001193464,33.0,100.0,800.0,5,True,2,down,0.16666666666666666,17,0.09416830004192889,0.3269591999705881,0.421127500012517,0.7416771999560297,False,far-080,36,4,2,2.5,2,down,1,0
251,2,True,2.7908640999812633,33.0,33.0,100.0,0,False,0,down,0.16666666666666666,25,0,0.4171965999994427,0.4171965999994427,1.114108300069347,False,far-rnd0,36,7,4,4.375,2,down,1,0
252,3,True,2.1973627998959273,33.0,33.0,100.0,0,False,0,down,0.16666666666666666,25,0,0.42612419999204576,0.42612419999204576,0.43626059987582266,True,far-rnd0,37,8,5,5.0,2,down,1,0
253,4,True,7.777158700162545,33.0,100.0,800.0,0,True,2,up,0.16666666666666666,22,0,0.40435740002430975,0.40435740002430975,1.7281125001609325,False,far-000,37,9,4,5.625,2,up,2,1
254,1,True,2.522994800005108,33.0,100.0,800.0,5,True,2,down,0.16666666666666666,17,0.09125589998438954,0.31859149993397295,0.4098473999183625,0.7268542000092566,True,far-080,37,5,3,3.125,2,down,1,0
255,2,True,2.0159032000228763,33.0,800.0,100.0,0,True,3,up,0.16666666666666666,30,0,0.5110706000123173,0.5110706000123173,0.7216533001046628,False,far-rnd3,37,6,5,3.75,3,up,1,0
256,3,True,1.8225159000139683,33.0,100.0,800.0,15,True,2,down,0.16666666666666666,10,0.26056849979795516,0.20990699995309114,0.4704754997510463,0.3516504999715835,True,far-240,37,10,7,6.25,2,down,2,1
257,2,True,1.9457018000539392,33.0,100.0,800.0,10,True,2,up,0.16666666666666666,9,0.17203949997201562,0.2009995998814702,0.3730390998534858,0.32557089999318123,True,far-160,37,6,4,3.75,2,up,1,0
258,3,True,2.7907906998880208,33.0,100.0,800.0,0,True,2,up,0.16666666666666666,22,0,0.3993623999413103,0.3993623999413103,0.7468532000202686,True,far-000,38,10,5,6.25,2,up,2,1
259,1,True,4.2844895999878645,33.0,100.0,800.0,15,True,2,down,0.16666666666666666,10,0.2483233001548797,0.21090770000591874,0.45923100016079843,0.8764299999456853,False,far-240,38,11,7,6.875,2,down,2,1
260,2,True,2.861864099977538,33.0,100.0,800.0,5,True,2,down,0.16666666666666666,17,0.09443029994145036,0.3295867000706494,0.42401700001209974,0.7157365998718888,False,far-080,38,6,3,3.75,2,down,1,0
261,2,True,1.474022100213915,33.0,100.0,800.0,10,True,2,up,0.16666666666666666,9,0.17845349991694093,0.18981110001914203,0.36826459993608296,0.7106015998870134,True,far-160,38,7,5,4.375,2,up,1,0
262,2,True,1.9756984999403358,33.0,33.0,100.0,0,False,0,down,0.16666666666666666,25,0,0.4171490001026541,0.4171490001026541,0.5126859000883996,True,far-rnd0,38,9,6,5.625,2,down,1,1
263,2,True,3.152867400087416,33.0,800.0,100.0,0,True,3,up,0.16666666666666666,30,0,0.5089499000459909,0.5089499000459909,0.3030334999784827,True,far-rnd3,38,7,6,4.375,3,up,1,0
264,1,True,2.9486229999456555,33.0,33.0,100.0,0,False,0,down,0.16666666666666666,25,0,0.4174335999414325,0.4174335999414325,0.39266070001758635,True,far-rnd0,39,10,7,6.25,2,down,1,1
265,1,True,2.0412160998675972,33.0,100.0,800.0,15,True,2,down,0.16666666666666666,10,0.2479940999764949,0.212190099991858,0.4601841999683529,0.9017779999412596,True,far-240,39,12,8,7.5,2,down,2,1
266,1,True,3.0150802999269217,33.0,100.0,800.0,5,True,2,down,0.16666666666666666,17,0.0905158999375999,0.312244099797681,0.40275999973528087,0.7385937999933958,False,far-080,39,7,3,4.375,2,down,1,0
267,3,True,3.199039899976924,33.0,100.0,800.0,10,True,2,up,0.16666666666666666,9,0.1763358002062887,0.19774070009589195,0.37407650030218065,0.5831836999859661,True,far-160,39,8,6,5.0,2,up,1,0
268,2,True,3.3826399999670684,33.0,100.0,800.0,0,True,2,up,0.16666666666666666,22,0,0.39769200002774596,0.39769200002774596,0.7259122999384999,True,far-000,39,11,6,6.875,2,up,2,1
269,2,True,2.269448700128123,33.0,800.0,100.0,0,True,3,up,0.16666666666666666,30,0,0.5067300000227988,0.5067300000227988,0.580423700157553,True,far-rnd3,39,8,7,5.0,3,up,1,0
270,2,True,2.946334999985993,33.0,100.0,800.0,15,True,2,down,0.16666666666666666,10,0.25460470002144575,0.2049778001382947,0.45958250015974045,0.4027007999829948,True,far-240,40,13,9,8.125,2,down,2,1
271,1,True,2.543784199981019,33.0,33.0,100.0,0,False,0,down,0.16666666666666666,25,0,0.41296240012161434,0.41296240012161434,0.5551978999283165,False,far-rnd0,40,11,7,6.875,2,down,1,1
272,1,True,1.753244699910283,33.0,100.0,800.0,5,True,2,down,0.16666666666666666,17,0.09559020004235208,0.4520228998735547,0.5476130999159068,0.40724450000561774,True,far-080,40,8,4,5.0,2,down,1,0
273,1,True,3.4694705000147223,33.0,100.0,800.0,10,True,2,up,0.16666666666666666,9,0.16871759993955493,0.19476939993910491,0.36348699987865984,0.6015229001641273,True,far-160,40,9,7,5.625,2,up,1,1
274,1,True,4.169960800092667,33.0,100.0,800.0,0,True,2,up,0.16666666666666666,22,0,0.3849890998098999,0.3849890998098999,1.106483800103888,False,far-000,40,12,6,7.5,2,up,2,1
275,1,True,5.4669550999533385,33.0,100.0,800.0,10,True,2,up,0.16666666666666666,9,0.17289720010012388,0.19042590004391968,0.36332310014404356,0.37653809995390475,True,far-160,41,10,8,6.25,2,up,1,1
276,1,True,3.2854108000174165,33.0,100.0,800.0,5,True,2,down,0.16666666666666666,17,0.09211409999988973,0.3257999001070857,0.41791400010697544,0.668624599929899,False,far-080,41,9,4,5.625,2,down,1,1
277,2,True,2.7129665000829846,33.0,33.0,100.0,0,False,0,down,0.16666666666666666,25,0,0.4174114998895675,0.4174114998895675,1.4699432000052184,False,far-rnd0,41,12,7,7.5,2,down,1,1
278,1,True,6.518309799954295,33.0,100.0,800.0,15,True,2,down,0.16666666666666666,10,0.2515028999187052,0.21067260019481182,0.46217550011351705,0.6651916999835521,True,far-240,41,14,10,8.75,2,down,2,1
279,1,True,3.069072099868208,33.0,100.0,800.0,0,True,2,up,0.16666666666666666,22,0,0.38110080012120306,0.38110080012120306,0.7062198999337852,True,far-000,41,13,7,8.125,2,up,2,1
280,4,True,3.097342799883336,33.0,100.0,800.0,10,True,2,up,0.16666666666666666,9,0.18659359985031188,0.19947490002959967,0.38606849987991154,0.44097120012156665,True,far-160,42,11,9,6.875,2,up,1,1
281,2,True,3.030718400143087,33.0,33.0,100.0,0,False,0,down,0.16666666666666666,25,0,0.4225705999415368,0.4225705999415368,1.1012832000851631,False,far-rnd0,42,13,7,8.125,2,down,1,1
282,1,True,5.287425199989229,33.0,100.0,800.0,0,True,2,up,0.16666666666666666,22,0,0.3835359001532197,0.3835359001532197,0.6313151998911053,False,far-000,42,14,7,8.75,2,up,2,1
283,1,True,3.6556696998886764,33.0,100.0,800.0,15,True,2,down,0.16666666666666666,10,0.2527783000841737,0.21209329995326698,0.46487160003744066,0.4926529999356717,True,far-240,42,15,11,9.375,2,down,2,1
284,3,True,3.046394699951634,33.0,100.0,800.0,5,True,2,down,0.16666666666666666,17,0.09031179989688098,0.33278520009480417,0.42309699999168515,0.4720384001266211,True,far-080,42,10,5,6.25,2,down,1,1
285,2,True,2.394031799864024,33.0,100.0,800.0,15,True,2,down,0.16666666666666666,10,0.25109550007618964,0.20738740009255707,0.4584829001687467,0.6007985000032932,True,far-240,43,16,12,10.0,2,down,2,1
286,4,True,2.966264400165528,33.0,100.0,800.0,0,True,2,up,0.16666666666666666,22,0,0.3971023999620229,0.3971023999620229,0.5667049000039697,True,far-000,43,15,8,9.375,2,up,2,1
287,2,True,3.5176544999703765,33.0,100.0,800.0,5,True,2,down,0.16666666666666666,17,0.09399869991466403,0.32917909999378026,0.4231777999084443,0.7462216999847442,False,far-080,43,11,5,6.875,2,down,1,1
288,2,True,2.5170326000079513,33.0,33.0,100.0,0,False,0,down,0.16666666666666666,25,0,0.4211092998739332,0.4211092998739332,0.5229133998509496,True,far-rnd0,43,14,8,8.75,2,down,1,1
289,1,True,2.9314508999232203,33.0,100.0,800.0,15,True,2,down,0.16666666666666666,10,0.25558610004372895,0.21111429994925857,0.4667003999929875,0.8248813000973314,True,far-240,44,17,13,10.625,2,down,2,2
290,2,True,2.434239200083539,33.0,33.0,100.0,0,False,0,down,0.16666666666666666,25,0,0.4157425998710096,0.4157425998710096,0.9872068997938186,False,far-rnd0,44,15,8,9.375,2,down,1,1
291,1,True,2.6943518000189215,33.0,100.0,800.0,5,True,2,down,0.16666666666666666,17,0.09169199992902577,0.311166999861598,0.4028589997906238,0.43550839996896684,True,far-080,44,12,6,7.5,2,down,1,1
292,2,True,1.7300478001125157,33.0,100.0,800.0,0,True,2,up,0.16666666666666666,22,0,0.3886124000418931,0.3886124000418931,0.687255600001663,False,far-000,44,16,8,10.0,2,up,2,1
293,2,True,2.9481777001637965,33.0,33.0,100.0,0,False,0,down,0.16666666666666666,25,0,0.4163522000890225,0.4163522000890225,1.4065338000655174,False,far-rnd0,45,16,8,10.0,2,down,1,1
294,1,True,5.506157899973914,33.0,100.0,800.0,0,True,2,up,0.16666666666666666,22,0,0.38723809993825853,0.38723809993825853,0.7639079999644309,True,far-000,45,17,9,10.625,2,up,2,2
295,3,True,2.904459600104019,33.0,100.0,800.0,5,True,2,down,0.16666666666666666,17,0.10107690002769232,0.3353209998458624,0.4363978998735547,0.4170752000063658,True,far-080,45,13,7,8.125,2,down,1,1
296,4,True,2.625023900065571,33.0,100.0,800.0,15,True,2,down,0.16666666666666666,9,0.2566559000406414,0.20860649994574487,0.4652623999863863,0.671388499904424,False,far-240,45,1,0,0.625,2,down,1,0
297,2,True,1.324601799948141,33.0,100.0,800.0,0,True,2,up,0.16666666666666666,22,0,0.3871516000945121,0.3871516000945121,0.7045651997905225,True,far-000,46,18,10,11.25,2,up,2,2
298,2,True,3.1711452999152243,33.0,800.0,100.0,0,True,3,up,0.16666666666666666,30,0,0.5119457000400871,0.5119457000400871,0.6781912001315504,True,far-rnd3,40,9,8,5.625,3,up,16,1
299,3,True,3.016440999926999,33.0,50.0,100.0,0,True,1,up,0.16666666666666666,17,0,0.3083820999599993,0.3083820999599993,0.8104501999914646,True,far-rnd1,36,9,7,5.625,3,up,16,1
300,1,True,3.4357882000040263,33.0,100.0,800.0,15,True,2,down,0.16666666666666666,9,0.25280360016040504,0.1984604001045227,0.45126400026492774,0.798180399928242,False,far-240,46,2,0,1.25,2,down,1,0
301,1,True,2.5824146999511868,33.0,100.0,800.0,5,True,2,down,0.16666666666666666,17,0.09340330003760755,0.3119791999924928,0.40538250003010035,0.4859316998627037,True,far-080,46,14,8,8.75,2,down,1,1
302,1,True,2.1939828998874873,33.0,33.0,100.0,0,False,0,down,0.16666666666666666,25,0,0.41325150011107326,0.41325150011107326,1.462357500102371,False,far-rnd0,46,17,8,10.625,2,down,16,2
303,2,True,3.5068272999487817,33.0,50.0,100.0,0,True,1,down,0.16666666666666666,13,0,0.24050260009244084,0.24050260009244084,1.3602936000097543,True,far-rnd1,37,1,1,0.625,0.5,down,4,0
304,2,True,5.453724500024691,33.0,800.0,100.0,0,True,3,down,0.16666666666666666,26,0,0.44981110002845526,0.44981110002845526,1.8579639999661595,True,far-rnd3,41,1,1,0.625,0.5,down,4,0
305,1,True,3.0050800999160856,33.0,100.0,800.0,0,True,2,up,0.16666666666666666,22,0,0.39011120004579425,0.39011120004579425,0.5768448000308126,True,far-000,47,19,11,11.875,2,up,2,2
306,2,True,2.036286500049755,33.0,33.0,100.0,0,False,0,up,0.16666666666666666,27,0,0.44827539985999465,0.44827539985999465,0.4789981001522392,True,far-rnd0,47,1,1,0.625,0.5,up,2,0
307,3,True,1.3033243000973016,33.0,100.0,800.0,5,True,2,down,0.16666666666666666,17,0.09739830018952489,0.3190765001345426,0.4164748003240675,0.7378881999757141,False,far-080,47,15,8,9.375,2,down,1,1
308,3,True,1.8749075999949127,33.0,100.0,800.0,15,True,2,down,0.16666666666666666,9,0.2579622999764979,0.19155729981139302,0.4495195997878909,0.8460500999353826,True,far-240,47,3,1,1.875,2,down,1,0
309,1,True,2.7274782001040876,33.0,800.0,100.0,0,True,3,down,0.16666666666666666,26,0,0.44495379994623363,0.44495379994623363,0.843812300125137,True,far-rnd3,42,2,2,1.25,1,down,4,0
310,1,True,2.6857743000146,33.0,100.0,800.0,0,True,2,up,0.16666666666666666,22,0,0.3869814001955092,0.3869814001955092,0.6841519000008702,True,far-000,48,20,12,12.5,2,up,2,2
311,2,True,1.8757386000361294,33.0,33.0,100.0,0,False,0,up,0.16666666666666666,27,0,0.4475877000950277,0.4475877000950277,0.8778971000574529,False,far-rnd0,48,2,1,1.25,2,up,2,0
312,2,True,2.1911473001819104,33.0,50.0,100.0,0,True,1,down,0.16666666666666666,13,0,0.24629719997756183,0.24629719997756183,0.7406810999382287,False,far-rnd1,38,2,1,1.25,1,down,4,0
313,3,True,2.808394500054419,33.0,100.0,800.0,5,True,2,down,0.16666666666666666,17,0.09961219993419945,0.32872069999575615,0.4283328999299556,1.049305000109598,False,far-080,48,16,8,10.0,2,down,1,1
314,1,True,1.8626083000563085,33.0,100.0,800.0,15,True,2,down,0.16666666666666666,9,0.2510214999783784,0.189450099831447,0.4404715998098254,1.1786517999134958,False,far-240,48,4,1,2.5,2,down,1,0
315,1,True,2.6089701999444515,33.0,800.0,100.0,0,True,3,down,0.16666666666666666,26,0,0.44293899997137487,0.44293899997137487,0.5278074000962079,True,far-rnd3,43,3,3,1.875,1,down,4,0
316,2,True,1.8612289000302553,33.0,50.0,100.0,0,True,1,down,0.16666666666666666,13,0,0.23811190016567707,0.23811190016567707,0.7075410999823362,False,far-rnd1,39,3,1,1.875,1,down,4,0
317,2,True,1.7264469000510871,33.0,100.0,800.0,15,True,2,down,0.16666666666666666,9,0.2512737000361085,0.20184070011600852,0.453114400152117,0.6419107001274824,False,far-240,49,5,1,3.125,2,down,1,0
318,1,True,2.252291299868375,33.0,100.0,800.0,0,True,2,up,0.16666666666666666,22,0,0.38804210000671446,0.38804210000671446,0.6885289999190718,True,far-000,49,21,13,13.125,2,up,2,2
319,1,True,2.1251420001499355,33.0,33.0,100.0,0,False,0,up,0.16666666666666666,27,0,0.44524999987334013,0.44524999987334013,0.44480469985865057,True,far-rnd0,49,3,2,1.875,2,up,2,0
320,1,True,2.3574888000730425,33.0,50.0,100.0,0,True,1,down,0.16666666666666666,13,0,0.23821899993345141,0.23821899993345141,0.3968980999197811,True,far-rnd1,40,4,2,2.5,1,down,4,0
321,2,True,3.1624283001292497,33.0,800.0,100.0,0,True,3,down,0.16666666666666666,22,0,0.3809062000364065,0.3809062000364065,0.5084516000933945,True,far-rnd3,44,1,1,0.625,1,down,4,0
322,2,True,1.789668200071901,33.0,33.0,100.0,0,False,0,up,0.16666666666666666,27,0,0.4503747997805476,0.4503747997805476,0.9802724001929164,False,far-rnd0,50,4,2,2.5,2,up,2,0
323,2,True,2.513671499909833,33.0,100.0,800.0,0,True,2,up,0.16666666666666666,22,0,0.389642900088802,0.389642900088802,1.3254548001568764,True,far-000,50,22,14,13.75,2,up,2,2
324,4,True,3.367753400001675,33.0,100.0,800.0,15,True,2,up,0.16666666666666666,10,0.2596239000558853,0.21470870007760823,0.47433260013349354,0.9322400998789817,True,far-240,50,1,1,0.625,2,up,1,0
325,1,True,3.0200910000130534,33.0,33.0,100.0,0,False,0,up,0.16666666666666666,27,0,0.4449517000466585,0.4449517000466585,2.606356200063601,False,far-rnd0,51,5,2,3.125,2,up,2,0
326,1,True,1.5599535000510514,33.0,100.0,800.0,0,True,2,up,0.16666666666666666,22,0,0.38639240013435483,0.38639240013435483,1.0620705999899656,False,far-000,51,23,14,14.375,2,up,2,2
327,2,True,2.178295500110835,33.0,100.0,800.0,15,True,2,up,0.16666666666666666,10,0.2507476999890059,0.2071433998644352,0.4578910998534411,0.6667834999971092,False,far-240,51,2,1,1.25,3,up,1,0
328,3,True,2.732855699956417,33.0,50.0,100.0,0,True,1,down,0.16666666666666666,13,0,0.2431675000116229,0.2431675000116229,1.06579939997755,False,far-rnd1,41,5,2,3.125,1,down,4,0
329,5,True,3.6565721998922527,33.0,800.0,100.0,0,True,3,down,0.16666666666666666,22,0,0.4017016999423504,0.4017016999423504,0.508768699830398,True,far-rnd3,45,2,2,1.25,1,down,4,0
330,2,True,1.7979836999438703,33.0,100.0,800.0,0,True,2,up,0.16666666666666666,22,0,0.3916996999178082,0.3916996999178082,1.1344262000638992,False,far-000,52,24,14,15.0,2,up,2,2
331,3,True,3.0129184001125395,33.0,100.0,800.0,15,True,2,up,0.16666666666666666,10,0.25842919992282987,0.22057579993270338,0.47900499985553324,0.35062990011647344,True,far-240,52,3,2,1.875,3,up,1,0
332,2,True,2.532071800203994,33.0,50.0,100.0,0,True,1,up,0.16666666666666666,15,0,0.27112679998390377,0.27112679998390377,0.6020137001760304,True,far-rnd1,42,1,1,0.625,1,up,2,0
333,1,True,3.8465797000098974,33.0,33.0,100.0,0,False,0,up,0.16666666666666666,27,0,0.44534240011125803,0.44534240011125803,0.598031799774617,True,far-rnd0,52,6,3,3.75,2,up,2,0
334,2,True,2.4353982999455184,33.0,800.0,100.0,0,True,3,down,0.16666666666666666,22,0,0.3824698000680655,0.3824698000680655,0.7622115002013743,True,far-rnd3,46,3,3,1.875,1,down,4,0
335,1,True,2.508772100089118,33.0,800.0,100.0,0,True,3,down,0.16666666666666666,18,0,0.3145218000281602,0.3145218000281602,0.8095124999526888,False,far-rnd3,47,1,0,0.625,1,down,4,0
336,3,True,2.818278699880466,33.0,50.0,100.0,0,True,1,up,0.16666666666666666,15,0,0.2783053999301046,0.2783053999301046,1.6095742001198232,False,far-rnd1,43,2,1,1.25,2,up,2,0
337,3,True,4.712434699991718,33.0,33.0,100.0,0,False,0,up,0.16666666666666666,27,0,0.4596567000262439,0.4596567000262439,0.9357028000522405,True,far-rnd0,53,7,4,4.375,2,up,2,0
338,2,True,2.2365721000824124,33.0,100.0,800.0,15,True,2,up,0.16666666666666666,10,0.25490179983899,0.21171439997851849,0.46661619981750846,0.8278331998735666,False,far-240,53,4,2,2.5,3,up,1,0
339,2,True,1.7551512999925762,33.0,800.0,100.0,0,True,3,down,0.16666666666666666,18,0,0.3190452998969704,0.3190452998969704,0.9468342000618577,False,far-rnd3,48,2,0,1.25,1,down,4,0
340,4,True,1.5488105998374522,33.0,50.0,100.0,0,True,1,up,0.16666666666666666,15,0,0.27996700000949204,0.27996700000949204,1.0393591998144984,False,far-rnd1,44,3,1,1.875,2,up,2,0
341,1,True,2.4771451000124216,33.0,33.0,100.0,0,False,0,up,0.16666666666666666,27,0,0.4458148998674005,0.4458148998674005,0.5126040999311954,True,far-rnd0,54,8,5,5.0,2,up,2,0
342,2,True,1.5449463000986725,33.0,100.0,800.0,15,True,2,up,0.16666666666666666,10,0.25462520006112754,0.20838789991103113,0.46301309997215867,0.9805264000315219,False,far-240,54,5,2,3.125,3,up,1,0
343,4,True,2.7502633000258356,33.0,800.0,100.0,0,True,3,up,0.16666666666666666,20,0,0.36458939989097416,0.36458939989097416,1.0090151000767946,False,far-rnd3,49,1,0,0.625,1,up,2,0
344,2,True,4.73397699999623,33.0,50.0,100.0,0,True,1,up,0.16666666666666666,15,0,0.2736840001307428,0.2736840001307428,1.2779339000117034,True,far-rnd1,45,4,2,2.5,2,up,2,0
345,1,True,2.72682680003345,33.0,33.0,100.0,0,False,0,up,0.16666666666666666,27,0,0.4477967000566423,0.4477967000566423,0.46980790002271533,True,far-rnd0,55,9,6,5.625,2,up,2,1
346,2,True,2.1980347000062466,33.0,100.0,800.0,15,True,2,up,0.16666666666666666,10,0.24825969990342855,0.209014100022614,0.45727379992604256,1.6179212001152337,True,far-240,55,6,3,3.75,3,up,1,0
347,1,True,2.418795800069347,33.0,800.0,100.0,0,True,3,up,0.16666666666666666,20,0,0.34516009991057217,0.34516009991057217,1.0792578000109643,False,far-rnd3,50,2,0,1.25,2,up,2,0
348,1,True,2.6300292999949306,33.0,50.0,100.0,0,True,1,up,0.16666666666666666,15,0,0.26431270013563335,0.26431270013563335,0.7507700999267399,True,far-rnd1,46,5,3,3.125,2,up,2,0
349,1,True,1.9599635999184102,33.0,100.0,800.0,15,True,2,up,0.16666666666666666,10,0.24773929989896715,0.24112669983878732,0.48886599973775446,0.7592796999961138,True,far-240,56,7,4,4.375,3,up,1,0
350,2,True,2.4164430999662727,33.0,33.0,100.0,0,False,0,up,0.16666666666666666,27,0,0.45297149987891316,0.45297149987891316,1.1362460998352617,True,far-rnd0,56,10,7,6.25,2,up,2,1
351,3,True,2.6279019999783486,33.0,50.0,100.0,0,True,1,up,0.16666666666666666,15,0,0.28016680013388395,0.28016680013388395,1.5174847000744194,False,far-rnd1,47,6,3,3.75,2,up,2,0
352,1,True,5.75377650000155,33.0,100.0,800.0,15,True,2,up,0.16666666666666666,10,0.24997729994356632,0.1998311998322606,0.44980849977582693,0.8364146000239998,False,far-240,57,8,4,5.0,3,up,1,0
