trial,primeIter,primeCorrect,primeTime,primeDepth,stimDepth,extraDepth,driveFrames,nearToFar,diopters,direction,size,intensity,extraLatency,mainLatency,totalLatency,responseTime,correct,caseLabel,caseTrial,trialsAtStep,stepCorrect,expected,w,direction,stepsize,stepChange
1,2,True,1.304566499995417,800.0,33.0,50.0,0,False,3,start,0.16666666666666666,60,0,1.0929080999922007,1.0929080999922007,0.2938901000015903,True,near-rnd3,1,1,1,0.625,0.5,start,16,0
2,3,True,0.8955111999966903,800.0,50.0,33.0,8,False,2,start,0.16666666666666666,60,0.14573979999113362,1.3759056999988388,1.5216454999899724,0.4980252999957884,True,orig-stim,1,1,1,0.625,0.5,start,16,0
3,2,True,1.4631155999959446,800.0,50.0,800.0,8,False,2,start,0.16666666666666666,60,0.14062609999382403,1.0022924999939278,1.1429185999877518,0.27786839999316726,True,radial-check,1,1,1,0.625,0.5,start,16,0
4,2,True,1.2860129000036977,800.0,800.0,50.0,0,False,0,start,0.16666666666666666,60,0,0.983766099991044,0.983766099991044,0.4277931999968132,True,near-rndm,1,1,1,0.625,0.5,start,16,0
5,3,True,21.630457999999635,800.0,50.0,100.0,8,False,2,start,0.16666666666666666,60,0.1423901000089245,0.9985340999992331,1.1409242000081576,0.4218534000101499,True,grating-gauss,1,1,1,0.625,0.5,start,16,0
6,2,True,3.5005447000003187,800.0,50.0,800.0,8,False,2,start,0.16666666666666666,60,0.13848480000160635,1.071163600005093,1.2096484000066994,0.37842899998940993,True,radial-star,1,1,1,0.625,0.5,start,16,0
7,3,True,1.2939043999940623,800.0,50.0,50.0,8,False,2,start,0.16666666666666666,60,0.4667050999996718,1.0057664000050863,1.4724715000047581,0.3793547999957809,True,grating-circ,1,1,1,0.625,0.5,start,16,0
8,4,True,3.3906487000058405,800.0,100.0,50.0,0,False,1,start,0.16666666666666666,60,0,1.006545999989612,1.006545999989612,0.7313303999981144,True,near-rnd2,1,1,1,0.625,0.5,start,16,0
9,1,True,1.821353299994371,800.0,50.0,800.0,8,False,2,start,0.16666666666666666,60,0.13160329998936504,1.2524288999993587,1.3840321999887237,0.2394817000022158,True,radial-anulus,1,1,1,0.625,0.5,start,16,0
10,1,True,1.9700936000008369,800.0,50.0,33.0,0,False,2,start,0.16666666666666666,60,0,0.9771234999934677,0.9771234999934677,0.47465329999977257,True,near-000,1,1,1,0.625,0.5,start,16,0
11,2,True,1.0052959000022383,800.0,50.0,800.0,8,False,2,start,0.16666666666666666,44,0.13553649999084882,0.7400739000004251,0.8756103999912739,0.3608250999968732,True,radial-check,2,1,1,0.625,1.0,start,16,0
12,3,True,3.0744403999997303,800.0,50.0,50.0,8,False,2,start,0.16666666666666666,44,0.14191330000176094,0.742311800000607,0.884225100002368,0.4267070999921998,True,grating-circ,2,1,1,0.625,1.0,start,16,0
13,1,True,7.816199699998833,800.0,50.0,100.0,8,False,2,start,0.16666666666666666,44,0.1307334000011906,0.7228726999892388,0.8536060999904294,0.4304151000105776,True,grating-gauss,2,1,1,0.625,1.0,start,16,0
14,3,True,1.2786691000073915,800.0,800.0,50.0,0,False,0,start,0.16666666666666666,44,0,0.7330674999975599,0.7330674999975599,0.5396838000015123,True,near-rndm,2,1,1,0.625,1.0,start,16,0
15,1,True,5.365719100009301,800.0,50.0,33.0,8,False,2,start,0.16666666666666666,44,0.1315357999992557,0.737891299999319,0.8694270999985747,0.3560161999921547,True,orig-stim,2,1,1,0.625,1.0,start,16,0
16,3,True,2.0900213999993866,800.0,50.0,800.0,8,False,2,start,0.16666666666666666,44,0.1395797000004677,0.7398195999994641,0.8793992999999318,0.3150441000034334,True,radial-anulus,2,1,1,0.625,1.0,start,16,0
17,2,True,2.803792299993802,800.0,50.0,800.0,8,False,2,start,0.16666666666666666,44,0.1390844000125071,0.7350857999990694,0.8741702000115765,0.48873889999231324,True,radial-star,2,1,1,0.625,1.0,start,16,0
18,2,True,2.0453112999966834,800.0,100.0,50.0,0,False,1,start,0.16666666666666666,44,0,0.7390357000112999,0.7390357000112999,0.544530199986184,True,near-rnd2,2,1,1,0.625,1.0,start,16,0
19,3,True,1.882738900007098,800.0,50.0,33.0,0,False,2,start,0.16666666666666666,44,0,0.7451715999923181,0.7451715999923181,0.4249280999938492,True,near-000,2,1,1,0.625,1.0,start,16,0
20,2,True,2.224445999992895,800.0,33.0,50.0,0,False,3,start,0.16666666666666666,44,0,0.7263649000087753,0.7263649000087753,0.8728945000038948,False,near-rnd3,2,1,0,0.625,1.0,start,16,0
21,2,True,1.74407460000657,800.0,50.0,800.0,8,False,2,start,0.16666666666666666,28,0.14010350000171456,0.480814399998053,0.6209178999997675,0.5969792999967467,True,radial-star,3,1,1,0.625,1.0,start,16,0
22,2,True,2.3797311000089394,800.0,50.0,800.0,8,False,2,start,0.16666666666666666,28,0.1380683999886969,0.8563239999930374,0.9943923999817343,0.5466763000003994,True,radial-anulus,3,1,1,0.625,1.0,start,16,0
23,2,True,4.7311896000028355,800.0,50.0,800.0,8,False,2,start,0.16666666666666666,28,0.13503220000711735,0.4847991999995429,0.6198314000066603,0.6335762000089744,True,radial-check,3,1,1,0.625,1.0,start,16,0
24,1,True,2.1489812999934657,800.0,50.0,100.0,8,False,2,start,0.16666666666666666,28,0.13069079999695532,0.4683854000031715,0.5990762000001268,0.7840482000028715,True,grating-gauss,3,1,1,0.625,1.0,start,16,0
25,4,True,1.2024441999965347,800.0,100.0,50.0,0,False,1,start,0.16666666666666666,28,0,0.5003390000056243,0.5003390000056243,0.4884574000025168,True,near-rnd2,3,1,1,0.625,1.0,start,16,0
26,2,True,1.1081661999924108,800.0,50.0,33.0,0,False,2,start,0.16666666666666666,28,0,0.48827349999919534,0.48827349999919534,0.7440762000042014,True,near-000,3,1,1,0.625,1.0,start,16,0
27,2,True,1.0701747000130126,800.0,50.0,50.0,8,False,2,start,0.16666666666666666,28,0.13832169999659527,0.48574530000041705,0.6240669999970123,0.4453480999945896,True,grating-circ,3,1,1,0.625,1.0,start,16,0
28,2,True,1.467468300004839,800.0,50.0,33.0,8,False,2,start,0.16666666666666666,28,0.13876129999698605,0.48205639999650884,0.6208176999934949,0.5330887000018265,True,orig-stim,3,1,1,0.625,1.0,start,16,0
29,1,True,2.774540899990825,800.0,33.0,50.0,0,False,3,start,0.16666666666666666,44,0,0.7592459000006784,0.7592459000006784,0.5518956000014441,True,near-rnd3,3,2,1,1.25,1.0,start,16,0
30,1,True,5.750794499996118,800.0,800.0,50.0,0,False,0,start,0.16666666666666666,28,0,0.4634308999957284,0.4634308999957284,0.5846616999915568,True,near-rndm,3,1,1,0.625,1.0,start,16,0
31,3,True,1.3689764000009745,800.0,50.0,50.0,8,False,2,start,0.16666666666666666,12,0.14361620000272524,0.23367309999594,0.37728929999866523,0.6543806000117911,True,grating-circ,4,1,1,0.625,0.5,start,16,0
32,2,True,3.078913299992564,800.0,100.0,50.0,0,False,1,start,0.16666666666666666,12,0,0.22980430000461638,0.22980430000461638,2.342032000000472,False,near-rnd2,4,1,0,0.625,0.5,start,16,0
33,1,True,2.8897815000091214,800.0,50.0,33.0,8,False,2,start,0.16666666666666666,12,0.12970979999226984,0.21095589999458753,0.34066569998685736,1.1692945000104373,False,orig-stim,4,1,0,0.625,0.5,start,16,0
34,1,True,8.443814099999145,800.0,50.0,800.0,8,False,2,start,0.16666666666666666,12,0.1309047999966424,0.21373960000346415,0.34464440000010654,1.2989323000074364,False,radial-anulus,4,1,0,0.625,0.5,start,16,0
35,4,True,3.822700000004261,800.0,800.0,50.0,0,False,0,start,0.16666666666666666,12,0,0.2328237000037916,0.2328237000037916,1.314586499996949,True,near-rndm,4,1,1,0.625,0.5,start,16,0
36,3,True,5.921556700006477,800.0,50.0,800.0,8,False,2,start,0.16666666666666666,12,0.14004339999519289,0.23930200000177138,0.37934539999696426,0.7157465999916894,True,radial-check,4,1,1,0.625,0.5,start,16,0
37,4,True,1.3600939000025392,800.0,33.0,50.0,0,False,3,start,0.16666666666666666,28,0,0.4770711000019219,0.4770711000019219,1.471881299992674,False,near-rnd3,4,1,0,0.625,0.5,start,16,0
38,2,True,3.7421724000014365,800.0,50.0,33.0,0,False,2,start,0.16666666666666666,12,0,0.22608480000053532,0.22608480000053532,1.0532690999971237,False,near-000,4,1,0,0.625,0.5,start,16,0
39,1,True,6.391634800005704,800.0,50.0,100.0,8,False,2,start,0.16666666666666666,12,0.12980149999202695,0.2099004000046989,0.33970189999672584,0.771773000000394,False,grating-gauss,4,1,0,0.625,0.5,start,16,0
40,1,True,3.648915700003272,800.0,50.0,800.0,8,False,2,start,0.16666666666666666,12,0.13029339999775402,0.20988480000232812,0.34017820000008214,0.8450831999944057,False,radial-star,4,1,0,0.625,0.5,start,16,0
41,2,True,1.4378195000026608,800.0,33.0,50.0,0,False,3,up,0.16666666666666666,36,0,0.5955740000063088,0.5955740000063088,0.93190599999798,True,near-rnd3,5,1,1,0.625,0.5,up,8,0
42,2,True,1.5323853000008967,800.0,800.0,50.0,0,False,0,start,0.16666666666666666,0,0,0.017966400002478622,0.017966400002478622,1.2160676999919815,False,near-rndm,5,1,0,0.625,0.5,start,16,0
43,2,True,5.649940799994511,800.0,50.0,800.0,8,False,2,up,0.16666666666666666,20,0.13892959999793675,0.3508447999920463,0.48977439998998307,1.8334297000110382,True,radial-anulus,5,1,1,0.625,0.5,up,8,0
44,3,True,3.026541300001554,800.0,50.0,100.0,8,False,2,up,0.16666666666666666,20,0.14337380000506528,0.8777859000110766,1.0211597000161419,0.0910108000098262,True,grating-gauss,5,1,1,0.625,0.5,up,8,0
45,3,True,1.3661996000009822,800.0,100.0,50.0,0,False,1,up,0.16666666666666666,20,0,0.3688269999984186,0.3688269999984186,0.6820850999938557,True,near-rnd2,5,1,1,0.625,0.5,up,8,0
46,1,True,1.3809796999994433,800.0,50.0,800.0,8,False,2,up,0.16666666666666666,20,0.12960569999995641,0.34362549999787007,0.4732311999978265,0.7936047999974107,False,radial-star,5,1,0,0.625,0.5,up,8,0
47,2,True,1.5152230999956373,800.0,50.0,800.0,8,False,2,start,0.16666666666666666,0,0.13993720000144094,0.0309183000063058,0.17085550000774674,0.9578579000080936,True,radial-check,5,1,1,0.625,0.5,start,16,0
48,2,True,11.264478099998087,800.0,50.0,33.0,8,False,2,up,0.16666666666666666,20,0.1398516000044765,0.357113300007768,0.49696490001224447,0.713759400008712,True,orig-stim,5,1,1,0.625,0.5,up,8,0
49,1,True,4.187132799997926,800.0,50.0,33.0,0,False,2,up,0.16666666666666666,20,0,0.3358345000015106,0.3358345000015106,5.804014200009988,False,near-000,5,1,0,0.625,0.5,up,8,0
50,3,True,1.073840899989591,800.0,50.0,50.0,8,False,2,start,0.16666666666666666,0,0.14736260000790935,0.038557899999432266,0.18592050000734162,0.9862619999912567,False,grating-circ,5,1,0,0.625,0.5,start,16,0
51,1,True,3.4638484999886714,800.0,50.0,800.0,8,False,2,up,0.16666666666666666,20,0.1303572000033455,0.33995490000233985,0.47031210000568535,0.7685725999908755,False,radial-star,6,2,0,1.25,1,up,8,0
52,3,True,6.15801410000131,800.0,50.0,50.0,8,False,2,up,0.16666666666666666,8,0.13953679999394808,0.17110930000490043,0.3106460999988485,1.0125629999965895,True,grating-circ,6,1,1,0.625,0.5,up,8,0
53,1,True,3.8418606000050204,800.0,33.0,50.0,0,False,3,up,0.16666666666666666,36,0,0.5830171999987215,0.5830171999987215,0.9328307999967365,True,near-rnd3,6,2,2,1.25,1,up,8,0
54,2,True,2.6909357999975327,800.0,50.0,33.0,0,False,2,up,0.16666666666666666,20,0,0.36017030000220984,0.36017030000220984,0.9191507000068668,False,near-000,6,2,0,1.25,1,up,8,0
55,2,True,1.7680729999992764,800.0,800.0,50.0,0,False,0,up,0.16666666666666666,8,0,0.15035729999362957,0.15035729999362957,1.5241972999938298,True,near-rndm,6,1,1,0.625,0.5,up,8,0
56,1,True,1.3356124999991152,800.0,50.0,33.0,8,False,2,up,0.16666666666666666,20,0.132685999997193,0.732999200001359,0.865685199998552,0.4660638000059407,True,orig-stim,6,2,2,1.25,1,up,8,0
57,3,True,1.5306458999984898,800.0,50.0,100.0,8,False,2,up,0.16666666666666666,20,0.14303150000341702,0.3651211999967927,0.5081527000002097,0.795833300013328,False,grating-gauss,6,2,1,1.25,1,up,8,0
58,1,True,1.284797999993316,800.0,50.0,800.0,8,False,2,start,0.16666666666666666,0,0.13164799999503884,0.019956799995270558,0.1516047999903094,1.010762900012196,False,radial-check,6,1,0,0.625,0.5,start,16,0
59,1,True,1.4943482999951812,800.0,100.0,50.0,0,False,1,up,0.16666666666666666,20,0,0.7140969000029145,0.7140969000029145,0.24920200000633486,True,near-rnd2,6,2,2,1.25,1,up,8,0
60,2,True,1.1569198000070173,800.0,50.0,800.0,8,False,2,up,0.16666666666666666,20,0.13826350000454113,0.3515650000044843,0.48982850000902545,0.6289503000007244,True,radial-anulus,6,2,2,1.25,1,up,8,0
61,2,True,1.2207511000015074,800.0,50.0,800.0,8,False,2,up,0.16666666666666666,20,0.38644979998935014,0.3631524999946123,0.7496022999839624,0.40606239999760874,True,radial-anulus,7,3,3,1.875,1,up,8,0
62,4,True,1.5429316999943694,800.0,33.0,50.0,0,False,3,up,0.16666666666666666,36,0,0.6061703000013949,0.6061703000013949,1.502827399992384,False,near-rnd3,7,3,2,1.875,1,up,8,0
63,1,True,1.7069981999957236,800.0,100.0,50.0,0,False,1,up,0.16666666666666666,20,0,0.33962480000627693,0.33962480000627693,1.8538376000069547,True,near-rnd2,7,3,3,1.875,1,up,8,0
64,1,True,1.2518005000019912,800.0,50.0,33.0,8,False,2,up,0.16666666666666666,20,0.1315613999904599,0.7311173000052804,0.8626786999957403,0.23233780000009574,True,orig-stim,7,3,3,1.875,1,up,8,0
65,1,True,3.663271099998383,800.0,50.0,800.0,8,False,2,up,0.16666666666666666,8,0.13153359999705572,0.15013149999140296,0.2816650999884587,1.5650113000010606,False,radial-check,7,1,0,0.625,0.5,up,8,0
66,2,True,1.6650657999998657,800.0,50.0,100.0,8,False,2,up,0.16666666666666666,20,0.13850870000896975,0.35829969999031164,0.4968083999992814,0.6289546000043629,True,grating-gauss,7,3,2,1.875,1,up,8,0
67,3,True,1.4047883999883197,800.0,50.0,33.0,0,False,2,up,0.16666666666666666,28,0,0.49716179999813903,0.49716179999813903,0.7250172000058228,False,near-000,7,1,0,0.625,1,up,8,0
68,1,True,7.588860699994257,800.0,50.0,50.0,8,False,2,up,0.16666666666666666,8,0.13057140000455547,0.14513930000248365,0.2757107000070391,0.7826575000071898,False,grating-circ,7,2,1,1.25,1,up,8,0
69,2,True,2.177538200005074,800.0,50.0,800.0,8,False,2,up,0.16666666666666666,28,0.22210800000175368,0.48968389999936335,0.711791900001117,0.7857363999937661,True,radial-star,7,1,1,0.625,1,up,8,0
70,1,True,1.5359072999999626,800.0,800.0,50.0,0,False,0,up,0.16666666666666666,8,0,0.1448208999936469,0.1448208999936469,1.221431299985852,True,near-rndm,7,2,2,1.25,1,up,8,0
71,2,True,0.8568717000016477,800.0,50.0,50.0,8,False,2,up,0.16666666666666666,8,0.13896130000648554,0.16251639999973122,0.30147770000621676,1.0233059000020148,True,grating-circ,8,3,2,1.875,1,up,8,0
72,2,True,6.362280499990447,800.0,50.0,800.0,8,False,2,down,0.16666666666666666,16,0.13933360000373796,0.2898907000053441,0.42922430000908207,0.7210114999907091,False,radial-anulus,8,1,0,0.625,1,down,4,0
73,4,True,1.2540867999923648,800.0,800.0,50.0,0,False,0,up,0.16666666666666666,8,0,0.1758308999997098,0.1758308999997098,1.075971699989168,False,near-rndm,8,3,2,1.875,1,up,8,0
74,3,True,1.180813799990574,800.0,33.0,50.0,0,False,3,up,0.16666666666666666,36,0,0.6035498999990523,0.6035498999990523,2.9851667000039015,False,near-rnd3,8,4,2,2.5,1,up,8,0
75,3,True,1.054126000002725,800.0,50.0,800.0,8,False,2,up,0.16666666666666666,28,0.14091539999935776,0.48884029999317136,0.6297556999925291,0.7060999999957858,True,radial-star,8,2,2,1.25,1,up,8,0
76,3,True,2.844433599995682,800.0,100.0,50.0,0,False,1,down,0.16666666666666666,16,0,0.3006284000002779,0.3006284000002779,1.020644699994591,False,near-rnd2,8,1,0,0.625,1,down,4,0
77,1,True,1.257066099991789,800.0,50.0,33.0,8,False,2,down,0.16666666666666666,16,0.13010819999908563,0.27555439999559894,0.40566259999468457,1.5641465999942739,False,orig-stim,8,1,0,0.625,1,down,4,0
78,2,True,0.8698774999938905,800.0,50.0,100.0,8,False,2,up,0.16666666666666666,20,0.13681809999980032,0.3559761000069557,0.492794200006756,0.6621070999972289,True,grating-gauss,8,4,3,2.5,1,up,8,0
79,1,True,1.4075419000000693,800.0,50.0,33.0,0,False,2,up,0.16666666666666666,28,0,0.7706095999892568,0.7706095999892568,0.5029169000044931,True,near-000,8,2,1,1.25,1,up,8,0
80,1,True,8.827369299993734,800.0,50.0,800.0,8,False,2,up,0.16666666666666666,8,0.24595110000518616,0.25441150000551715,0.5003626000107033,0.8059051000018371,False,radial-check,8,2,0,1.25,1,up,8,0
81,3,True,1.4740912999986904,800.0,50.0,33.0,8,False,2,down,0.16666666666666666,16,0.1388961000047857,0.294545199998538,0.4334413000033237,0.7272490999894217,True,orig-stim,9,2,1,1.25,1,down,4,0
82,3,True,1.1975632999965455,800.0,50.0,50.0,8,False,2,up,0.16666666666666666,8,0.1431213000032585,0.16499150000163354,0.30811280000489205,0.7871673000045121,False,grating-circ,9,4,2,2.5,1,up,8,0
83,2,True,1.6269074000010733,800.0,800.0,50.0,0,False,0,up,0.16666666666666666,8,0,0.147954000000027,0.147954000000027,1.1430865000002086,False,near-rndm,9,4,2,2.5,1,up,8,0
84,1,True,3.898530699996627,800.0,100.0,50.0,0,False,1,down,0.16666666666666666,16,0,0.2812226000096416,0.2812226000096416,0.8121179000008851,False,near-rnd2,9,2,0,1.25,1,down,4,0
85,3,True,0.9864153999951668,800.0,50.0,800.0,8,False,2,up,0.16666666666666666,16,0.147875099995872,0.309309200005373,0.457184300001245,0.5942028999998001,True,radial-check,9,1,1,0.625,1,up,8,0
86,2,True,2.0675982999964617,800.0,33.0,50.0,0,False,3,up,0.16666666666666666,36,0,0.5995799000083935,0.5995799000083935,1.3556602000026032,False,near-rnd3,9,5,2,3.125,1,up,8,0
87,1,True,1.271835599996848,800.0,50.0,800.0,8,False,2,up,0.16666666666666666,28,0.1307368999987375,0.46972740000637714,0.6004643000051146,0.4732598999980837,True,radial-star,9,3,3,1.875,1,up,8,0
88,2,True,2.4742359000083525,800.0,50.0,100.0,8,False,2,up,0.16666666666666666,20,0.13897889999498148,0.35375689998909365,0.49273579998407513,0.6012495000031777,True,grating-gauss,9,5,4,3.125,1,up,8,0
89,4,True,2.3607636999950046,800.0,50.0,33.0,0,False,2,up,0.16666666666666666,28,0,0.7417614000005415,0.7417614000005415,0.5457741999998689,True,near-000,9,3,2,1.875,1,up,8,0
90,3,True,1.0977792000048794,800.0,50.0,800.0,8,False,2,down,0.16666666666666666,16,0.14182889999938197,0.2945921000064118,0.43642100000579376,0.793757799998275,True,radial-anulus,9,2,1,1.25,1,down,4,0
91,1,True,2.5790666000102647,800.0,33.0,50.0,0,False,3,up,0.16666666666666666,44,0,0.7141141000029165,0.7141141000029165,1.0717766000016127,False,near-rnd3,10,1,0,0.625,1,up,8,0
92,2,True,1.4031070999917574,800.0,800.0,50.0,0,False,0,up,0.16666666666666666,8,0,0.15146989999630023,0.15146989999630023,1.0822291999938898,False,near-rndm,10,5,2,3.125,1,up,8,0
93,1,True,2.2369779000000563,800.0,50.0,50.0,8,False,2,up,0.16666666666666666,8,0.12958130000333767,0.14986760000465438,0.27944890000799205,1.2811624000023585,True,grating-circ,10,5,3,3.125,1,up,8,0
94,1,True,2.115560699996422,800.0,50.0,800.0,8,False,2,down,0.16666666666666666,24,0.1304487000015797,0.4047621999925468,0.5352108999941265,0.7560374000022421,True,radial-star,10,1,1,0.625,1,down,4,0
95,2,True,1.3791398000030313,800.0,50.0,100.0,8,False,2,up,0.16666666666666666,20,0.14063870000245515,0.35035720000450965,0.4909959000069648,0.725427999990643,False,grating-gauss,10,6,4,3.75,1,up,8,0
96,4,True,2.412322000003769,800.0,50.0,33.0,8,False,2,down,0.16666666666666666,16,0.14524729999538977,0.3098679999966407,0.4551152999920305,0.6700196999881882,True,orig-stim,10,3,2,1.875,1,down,4,0
97,2,True,1.1590304999990622,800.0,50.0,33.0,0,False,2,up,0.16666666666666666,28,0,0.48039920000883285,0.48039920000883285,0.9743973000004189,False,near-000,10,4,2,2.5,1,up,8,0
98,4,True,1.1606439000024693,800.0,50.0,800.0,8,False,2,up,0.16666666666666666,16,0.14453710000088904,0.2984925999917323,0.4430296999926213,0.6233193999942159,True,radial-check,10,2,2,1.25,1,up,8,0
99,2,True,1.9635589999961667,800.0,50.0,800.0,8,False,2,down,0.16666666666666666,16,0.13768770000024233,0.2897073000058299,0.4273950000060722,0.7005617999966489,False,radial-anulus,10,3,1,1.875,1,down,4,0
100,1,True,3.6150951000017812,800.0,100.0,50.0,0,False,1,up,0.16666666666666666,18,0,0.3120267999911448,0.3120267999911448,0.9785680000059074,True,near-rnd2,10,1,1,0.625,1,up,2,0
101,2,True,1.941504200003692,800.0,50.0,800.0,8,False,2,down,0.16666666666666666,16,0.13895459999912418,0.29908930000965483,0.438043900008779,0.5997334999992745,True,radial-anulus,11,4,2,2.5,1,down,4,0
102,4,True,1.7137408000126015,800.0,800.0,50.0,0,False,0,up,0.16666666666666666,16,0,0.2948690000048373,0.2948690000048373,0.7437501999957021,True,near-rndm,11,1,1,0.625,1,up,8,0
103,2,True,2.015490099991439,800.0,50.0,33.0,8,False,2,down,0.16666666666666666,16,0.1400393000076292,0.2965876000089338,0.436626900016563,0.7626617999922018,True,orig-stim,11,4,3,2.5,1,down,4,0
104,1,True,2.6618923999922117,800.0,50.0,800.0,8,False,2,down,0.16666666666666666,24,0.13109340000664815,0.4028459999972256,0.5339394000038737,0.6829003000020748,True,radial-star,11,2,2,1.25,1,down,4,0
105,1,True,1.9275535000051605,800.0,33.0,50.0,0,False,3,up,0.16666666666666666,44,0,0.9082399000035366,0.9082399000035366,0.6827395000000251,True,near-rnd3,11,2,1,1.25,1,up,8,0
106,2,True,1.6031321000045864,800.0,50.0,33.0,0,False,2,up,0.16666666666666666,28,0,0.9807798000110779,0.9807798000110779,0.2785636000044178,True,near-000,11,5,3,3.125,1,up,8,0
107,4,True,1.7213456000026781,800.0,50.0,800.0,8,False,2,up,0.16666666666666666,16,0.14134159999957774,0.3002400999976089,0.44158169999718666,1.1727538999984972,False,radial-check,11,3,2,1.875,1,up,8,0
108,3,True,4.3728606999939075,800.0,100.0,50.0,0,False,1,up,0.16666666666666666,18,0,0.33105439999781083,0.33105439999781083,1.3799426000041422,True,near-rnd2,11,2,2,1.25,2,up,2,0
109,1,True,1.6298973000084516,800.0,50.0,50.0,8,False,2,up,0.16666666666666666,8,0.1305943000043044,0.14629089999652933,0.2768852000008337,1.7135519000003114,False,grating-circ,11,6,3,3.75,1,up,8,0
110,1,True,4.708698500005994,800.0,50.0,100.0,8,False,2,up,0.16666666666666666,20,0.13116449999506585,0.33754059999773744,0.4687050999928033,0.5915693000133615,True,grating-gauss,11,7,5,4.375,1,up,8,0
111,1,True,8.896089599991683,800.0,50.0,800.0,8,False,2,down,0.16666666666666666,24,0.12979550000454765,0.40234609998879023,0.5321415999933379,0.7246634000039194,True,radial-star,12,3,3,1.875,1,down,4,0
112,2,True,1.7054223000013735,800.0,50.0,33.0,0,False,2,up,0.16666666666666666,28,0,0.48342350000166334,0.48342350000166334,0.6377892000018619,True,near-000,12,6,4,3.75,1,up,8,0
113,2,True,1.0155937999952585,800.0,50.0,33.0,8,False,2,down,0.16666666666666666,16,0.1388652000023285,0.29651109999394976,0.43537629999627825,1.542738800009829,True,orig-stim,12,5,4,3.125,1,down,4,0
114,2,True,2.889911599995685,800.0,50.0,800.0,8,False,2,down,0.16666666666666666,16,0.13578419999976177,0.293570699999691,0.42935489999945275,0.6299186999967787,True,radial-anulus,12,5,3,3.125,1,down,4,0
115,4,True,4.057603199995356,800.0,50.0,50.0,8,False,2,up,0.16666666666666666,8,0.1479135999979917,0.18266160000348464,0.33057520000147633,0.9137817000009818,False,grating-circ,12,7,3,4.375,1,up,8,0
116,2,True,4.491212699998869,800.0,50.0,800.0,8,False,2,up,0.16666666666666666,16,0.1384230999974534,0.29483450000407174,0.43325760000152513,0.7762254000117537,True,radial-check,12,4,3,2.5,1,up,8,0
117,1,True,5.4588347999961115,800.0,50.0,100.0,8,False,2,up,0.16666666666666666,20,0.130456700004288,0.3373987000086345,0.4678554000129225,1.7676933000038844,True,grating-gauss,12,8,6,5.0,1,up,8,0
118,1,True,2.0553457000060007,800.0,800.0,50.0,0,False,0,up,0.16666666666666666,16,0,0.27187150000827387,0.27187150000827387,1.1879517000052147,True,near-rndm,12,2,2,1.25,1,up,8,0
119,1,True,1.8389103000081377,800.0,100.0,50.0,0,False,1,up,0.16666666666666666,18,0,0.3077986999996938,0.3077986999996938,0.7278759000037098,True,near-rnd2,12,3,3,1.875,2,up,2,0
120,2,True,3.775181099990732,800.0,33.0,50.0,0,False,3,up,0.16666666666666666,44,0,0.7275764999940293,0.7275764999940293,1.5495502999983728,True,near-rnd3,12,3,2,1.875,1,up,8,0
121,1,True,3.6780361000128323,800.0,50.0,800.0,8,False,2,down,0.16666666666666666,20,0.1309707000036724,0.33987409999826923,0.4708448000019416,0.8350768999953289,True,radial-star,13,1,1,0.625,1,down,4,0
122,2,True,5.007768399998895,800.0,800.0,50.0,0,False,0,up,0.16666666666666666,16,0,0.27729319999343716,0.27729319999343716,1.0238753000012366,False,near-rndm,13,3,2,1.875,1,up,8,0
123,3,True,2.0512324000010267,800.0,50.0,33.0,0,False,2,up,0.16666666666666666,28,0,0.4838898999878438,0.4838898999878438,0.763466000003973,True,near-000,13,7,5,4.375,1,up,8,0
124,2,True,1.9151542999898084,800.0,50.0,800.0,8,False,2,up,0.16666666666666666,16,0.14238039999327157,0.2966052999981912,0.43898569999146275,1.9611814999952912,True,radial-check,13,5,4,3.125,1,up,8,0
125,1,True,3.6209211999957915,800.0,50.0,50.0,8,False,2,up,0.16666666666666666,16,0.12910550000378862,0.27563170000212267,0.4047372000059113,2.0474097000114853,False,grating-circ,13,1,0,0.625,1,up,8,0
126,2,True,1.281001199997263,800.0,50.0,33.0,8,False,2,down,0.16666666666666666,16,0.1373734999942826,0.2998476000066148,0.4372211000008974,1.645942399991327,True,orig-stim,13,6,5,3.75,1,down,4,0
127,4,True,1.4240604999940842,800.0,50.0,800.0,8,False,2,down,0.16666666666666666,16,0.15095099998870865,0.3042262000089977,0.45517719999770634,0.6460802999936277,True,radial-anulus,13,6,4,3.75,1,down,4,0
128,1,True,3.0216974999930244,800.0,33.0,50.0,0,False,3,up,0.16666666666666666,44,0,0.7131681000028038,0.7131681000028038,0.49832620000233874,True,near-rnd3,13,4,3,2.5,1,up,8,0
129,2,True,1.0770548000000417,800.0,50.0,100.0,8,False,2,up,0.16666666666666666,20,0.13380619999952614,0.36143570000422187,0.495241900003748,0.7213878999900771,False,grating-gauss,13,9,6,5.625,1,up,8,1
130,2,True,1.2687585999956354,800.0,100.0,50.0,0,False,1,up,0.16666666666666666,18,0,0.3277038999949582,0.3277038999949582,0.9474560999951791,False,near-rnd2,13,4,3,2.5,2,up,2,0
131,2,True,3.261598800003412,800.0,50.0,800.0,8,False,2,down,0.16666666666666666,16,0.13624890000210144,0.29205740000179503,0.42830630000389647,0.9734046999947168,False,radial-anulus,14,7,4,4.375,1,down,4,0
132,4,True,3.9699983000027714,800.0,50.0,33.0,0,False,2,up,0.16666666666666666,28,0,0.49807139999757055,0.49807139999757055,0.6182446000020718,True,near-000,14,8,6,5.0,1,up,8,0
133,3,True,1.027440599995316,800.0,33.0,50.0,0,False,3,up,0.16666666666666666,44,0,0.7333346999948844,0.7333346999948844,0.4189397000009194,True,near-rnd3,14,5,4,3.125,1,up,8,0
134,2,True,1.3288328000053298,800.0,50.0,50.0,8,False,2,up,0.16666666666666666,16,0.14086449999012984,0.2947182999923825,0.43558279998251237,0.766705500005628,False,grating-circ,14,2,0,1.25,1,up,8,0
135,1,True,1.5137579000002006,800.0,50.0,100.0,8,False,2,up,0.16666666666666666,20,0.13038909999886528,0.33670379999966826,0.46709289999853354,0.6408550000051036,True,grating-gauss,14,10,7,6.25,1,up,8,1
136,2,True,1.4907887000008486,800.0,50.0,800.0,8,False,2,down,0.16666666666666666,20,0.13667350000469014,0.35744409999460913,0.4941175999992993,0.5018353000050411,True,radial-star,14,2,2,1.25,1,down,4,0
137,2,True,1.0436722000013106,800.0,800.0,50.0,0,False,0,up,0.16666666666666666,16,0,0.2785207000124501,0.2785207000124501,0.8380166999995708,True,near-rndm,14,4,3,2.5,1,up,8,0
138,2,True,1.3878215000004275,800.0,50.0,800.0,8,False,2,up,0.16666666666666666,16,0.1357821999990847,0.2921020000067074,0.4278842000057921,0.9204128999990644,False,radial-check,14,6,4,3.75,1,up,8,0
139,1,True,1.8435656000074232,800.0,50.0,33.0,8,False,2,down,0.16666666666666666,12,0.13064980000490323,0.20987530000275,0.34052510000765324,0.8500964999984717,True,orig-stim,14,1,1,0.625,1,down,4,0
140,3,True,0.6611992999969516,800.0,100.0,50.0,0,False,1,up,0.16666666666666666,18,0,0.3347193999943556,0.3347193999943556,0.950430899989442,False,near-rnd2,14,5,3,3.125,2,up,2,0
141,2,True,1.2069055000029039,800.0,100.0,50.0,0,False,1,up,0.16666666666666666,18,0,0.3270230999914929,0.3270230999914929,1.855649799996172,False,near-rnd2,15,6,3,3.75,2,up,2,0
142,2,True,6.9842712999961805,800.0,50.0,33.0,8,False,2,down,0.16666666666666666,12,0.1403662000084296,0.2277823000040371,0.3681485000124667,0.7433611000014935,False,orig-stim,15,2,1,1.25,1,down,4,0
143,4,True,4.856091599998763,800.0,800.0,50.0,0,False,0,up,0.16666666666666666,16,0,0.30351850000442937,0.30351850000442937,0.7652385999972466,True,near-rndm,15,5,4,3.125,1,up,8,0
144,2,True,2.079414199994062,800.0,50.0,33.0,0,False,2,up,0.16666666666666666,28,0,0.48173519999545533,0.48173519999545533,0.7306494999938877,True,near-000,15,9,7,5.625,1,up,8,1
145,1,True,1.9614149999979418,800.0,50.0,800.0,8,False,2,down,0.16666666666666666,16,0.12991230000625364,0.2756131999922218,0.4055254999984754,0.7440717999998014,True,radial-anulus,15,8,5,5.0,1,down,4,0
146,1,True,10.932202600000892,800.0,50.0,100.0,8,False,2,up,0.16666666666666666,20,0.1296728000015719,0.3395718000101624,0.4692446000117343,0.9237447999912547,True,grating-gauss,15,11,8,6.875,1,up,8,1
147,1,True,1.7793795000034152,800.0,50.0,50.0,8,False,2,up,0.16666666666666666,24,0.13121590000810102,0.40068279999832157,0.5318987000064226,0.4929817000083858,True,grating-circ,15,1,1,0.625,1,up,8,0
148,3,True,1.8869424000004074,800.0,50.0,800.0,8,False,2,down,0.16666666666666666,20,0.14134960000228602,0.36421169999812264,0.5055613000004087,0.5721803000051295,True,radial-star,15,3,3,1.875,1,down,4,0
149,1,True,1.7190365999995265,800.0,33.0,50.0,0,False,3,up,0.16666666666666666,44,0,0.715974599996116,0.715974599996116,1.5179800999903819,False,near-rnd3,15,6,4,3.75,1,up,8,0
150,3,True,1.9611582000070484,800.0,50.0,800.0,8,False,2,up,0.16666666666666666,16,0.14179739999235608,0.30090719999861903,0.4427045999909751,0.6506402999948477,False,radial-check,15,7,4,4.375,1,up,8,0
151,2,True,0.9376400000037393,800.0,50.0,800.0,8,False,2,up,0.16666666666666666,16,0.49750959999801125,0.30001269999775104,0.7975222999957623,0.6461578000016743,True,radial-check,16,8,5,5.0,1,up,8,0
152,1,True,5.0811265999946045,800.0,50.0,33.0,8,False,2,down,0.16666666666666666,12,0.13139939999382477,0.21267149999039248,0.34407089998421725,1.3743407000001753,False,orig-stim,16,3,1,1.875,1,down,4,0
153,2,True,2.1299334000068484,800.0,50.0,100.0,8,False,2,down,0.16666666666666666,18,0.13714800000889227,0.328757700001006,0.4659057000098983,1.141801999998279,False,grating-gauss,16,1,0,0.625,1,down,2,0
154,2,True,1.234443299996201,800.0,50.0,50.0,8,False,2,up,0.16666666666666666,24,0.13799489999655634,0.4214408999978332,0.5594357999943895,0.7987254000036046,False,grating-circ,16,2,1,1.25,1,up,8,0
155,2,True,2.699827999997069,800.0,100.0,50.0,0,False,1,up,0.16666666666666666,18,0,0.3289433000027202,0.3289433000027202,1.3158151999959955,False,near-rnd2,16,7,3,4.375,2,up,2,0
156,4,True,1.2764155000040773,800.0,50.0,800.0,8,False,2,down,0.16666666666666666,16,0.14058569999178872,0.30402260000118986,0.4446082999929786,0.8726768999913475,True,radial-star,16,1,1,0.625,1,down,4,0
157,3,True,9.47379189998901,800.0,33.0,50.0,0,False,3,up,0.16666666666666666,44,0,0.7311832999985199,0.7311832999985199,0.9576747999963118,False,near-rnd3,16,7,4,4.375,1,up,8,0
158,2,True,1.2057799000031082,800.0,50.0,800.0,8,False,2,down,0.16666666666666666,16,0.41881519999878947,0.2962009000038961,0.7150161000026856,2.2344321999989916,True,radial-anulus,16,9,6,5.625,1,down,4,1
159,2,True,3.488643599994248,800.0,50.0,33.0,0,False,2,down,0.16666666666666666,26,0,0.44825320001109503,0.44825320001109503,1.157659299991792,True,near-000,16,1,1,0.625,1,down,2,0
160,2,True,1.8540661000006367,800.0,800.0,50.0,0,False,0,up,0.16666666666666666,16,0,0.2810849999950733,0.2810849999950733,0.8038070000038715,True,near-rndm,16,6,5,3.75,1,up,8,0
161,2,True,2.178008300004876,800.0,50.0,100.0,8,False,2,down,0.16666666666666666,18,0.1763206000032369,0.33241020000423305,0.50873080000747,0.8425049999932526,True,grating-gauss,17,2,1,1.25,2,down,2,0
162,1,True,4.751152099997853,800.0,50.0,800.0,8,False,2,up,0.16666666666666666,16,0.13052509998669848,0.2759439000074053,0.4064689999941038,0.8303252000041539,False,radial-check,17,9,5,5.625,1,up,8,1
163,1,True,1.387348899996141,800.0,50.0,50.0,8,False,2,up,0.16666666666666666,24,0.13067290000617504,0.4009946000005584,0.5316675000067335,0.7157019000005675,True,grating-circ,17,3,2,1.875,1,up,8,0
164,1,True,3.960249700001441,800.0,50.0,33.0,8,False,2,down,0.16666666666666666,12,0.1318429999955697,0.21495959999447223,0.3468025999900419,0.8829638999886811,True,orig-stim,17,4,2,2.5,1,down,4,0
165,4,True,1.7078380000020843,800.0,100.0,50.0,0,False,1,up,0.16666666666666666,18,0,0.3443464000010863,0.3443464000010863,1.1037183000007644,True,near-rnd2,17,8,4,5.0,2,up,2,0
166,1,True,1.5318846000009216,800.0,33.0,50.0,0,False,3,up,0.16666666666666666,44,0,0.7126515999989351,0.7126515999989351,0.8382331000029808,True,near-rnd3,17,8,5,5.0,1,up,8,0
167,1,True,2.087345499996445,800.0,50.0,33.0,0,False,2,down,0.16666666666666666,26,0,0.4344582000048831,0.4344582000048831,3.2053147999977227,True,near-000,17,2,2,1.25,2,down,2,0
168,1,True,1.7160653000028105,800.0,50.0,800.0,8,False,2,down,0.16666666666666666,16,0.13090199998987373,0.27385290000529494,0.40475489999516867,0.7861462000000756,False,radial-anulus,17,10,6,6.25,1,down,4,1
169,2,True,2.7069475000025705,800.0,50.0,800.0,8,False,2,down,0.16666666666666666,16,0.1395516999909887,0.29664700001012534,0.43619870000111405,0.6407261999993352,False,radial-star,17,2,1,1.25,1,down,4,0
170,3,True,1.056807500004652,800.0,800.0,50.0,0,False,0,down,0.16666666666666666,12,0,0.2250108000007458,0.2250108000007458,1.4029321000125492,False,near-rndm,17,1,0,0.625,1,down,4,0
171,3,True,0.7957681000116281,800.0,50.0,800.0,8,False,2,up,0.16666666666666666,16,0.1406276999914553,0.2922458000102779,0.4328735000017332,0.7683878999960143,False,radial-check,18,10,5,6.25,1,up,8,1
172,3,True,2.3399274999974295,800.0,50.0,100.0,8,False,2,down,0.16666666666666666,18,0.1438112000032561,0.769311199997901,0.9131224000011571,0.428182999996352,True,grating-gauss,18,3,2,1.875,2,down,2,0
173,1,True,4.449527600008878,800.0,50.0,800.0,8,False,2,down,0.16666666666666666,16,0.13057259999914095,0.2732427999872016,0.4038153999863425,0.7543662999960361,True,radial-anulus,18,11,7,6.875,1,down,4,1
174,3,True,1.4214988999883644,800.0,800.0,50.0,0,False,0,down,0.16666666666666666,12,0,0.2267779999965569,0.2267779999965569,0.870811999993748,True,near-rndm,18,2,1,1.25,1,down,4,0
175,2,True,1.1203510999912396,800.0,33.0,50.0,0,False,3,up,0.16666666666666666,44,0,0.7286996000038926,0.7286996000038926,0.7479085000086343,True,near-rnd3,18,9,6,5.625,1,up,8,1
176,4,True,1.1897589999862248,800.0,50.0,50.0,8,False,2,up,0.16666666666666666,24,0.14331460000539664,0.43206669999926817,0.5753813000046648,0.567267799997353,True,grating-circ,18,4,3,2.5,1,up,8,0
177,1,True,2.166006200000993,800.0,50.0,800.0,8,False,2,down,0.16666666666666666,16,0.13054089999059215,0.2732967999909306,0.40383769998152275,0.7888716000015847,False,radial-star,18,3,1,1.875,1,down,4,0
178,2,True,2.3105495999916457,800.0,100.0,50.0,0,False,1,up,0.16666666666666666,18,0,0.3221819000027608,0.3221819000027608,0.8603810000058729,False,near-rnd2,18,9,4,5.625,2,up,2,1
179,1,True,3.0810308000072837,800.0,50.0,33.0,8,False,2,down,0.16666666666666666,12,0.13092729999334551,0.21314180000626948,0.344069099999615,0.7996252000011737,False,orig-stim,18,5,2,3.125,1,down,4,0
180,3,True,2.2912391999998363,800.0,50.0,33.0,0,False,2,down,0.16666666666666666,26,0,0.4663999999902444,0.4663999999902444,1.1997873000073014,False,near-000,18,3,2,1.875,2,down,2,0
181,3,True,1.9846478999970714,800.0,50.0,33.0,0,False,2,down,0.16666666666666666,26,0,0.6901921999960905,0.6901921999960905,0.6541078000009293,True,near-000,19,4,3,2.5,2,down,2,0
182,1,True,3.9320044000050984,800.0,50.0,33.0,8,False,2,up,0.16666666666666666,14,0.2280349000066053,0.24252670000714716,0.47056160001375247,0.8160437000042293,True,orig-stim,19,1,1,0.625,1,up,2,0
183,3,True,0.9789987999974983,800.0,50.0,100.0,8,False,2,down,0.16666666666666666,18,0.5896270000084769,0.3249874000030104,0.9146144000114873,4.673618800006807,True,grating-gauss,19,4,3,2.5,2,down,2,0
184,1,True,7.315222799996263,800.0,50.0,50.0,8,False,2,up,0.16666666666666666,24,0.13122540000767913,0.40175509999971837,0.5329805000073975,0.6449012999946717,True,grating-circ,19,5,4,3.125,1,up,8,0
185,1,True,1.4810196999897016,800.0,50.0,800.0,8,False,2,down,0.16666666666666666,16,0.13127080000413116,0.2776421000016853,0.4089129000058165,0.7501781000028132,True,radial-star,19,4,2,2.5,1,down,4,0
186,2,True,2.526883499987889,800.0,33.0,50.0,0,False,3,up,0.16666666666666666,44,0,0.7288420999975642,0.7288420999975642,0.829413100000238,True,near-rnd3,19,10,7,6.25,1,up,8,1
187,1,True,10.011997699999483,800.0,50.0,800.0,8,False,2,up,0.16666666666666666,20,0.13221349999366794,0.3380638000089675,0.47027730000263546,0.8574373000010382,True,radial-check,19,1,1,0.625,1,up,4,0
188,2,True,2.102840199993807,800.0,800.0,50.0,0,False,0,down,0.16666666666666666,12,0,0.22110240001347847,0.22110240001347847,1.067784600003506,True,near-rndm,19,3,2,1.875,1,down,4,0
189,3,True,1.2617029000102775,800.0,50.0,800.0,8,False,2,down,0.16666666666666666,16,0.14252709998982027,0.318491099998937,0.46101819998875726,0.786482800001977,True,radial-anulus,19,12,8,7.5,1,down,4,1
190,2,True,1.8830175000039162,800.0,100.0,50.0,0,False,1,up,0.16666666666666666,18,0,0.3294843000039691,0.3294843000039691,0.7963347000040812,False,near-rnd2,19,10,4,6.25,2,up,2,1
191,3,True,1.298379300002125,800.0,50.0,33.0,8,False,2,up,0.16666666666666666,14,0.14574990000983234,0.2750314000004437,0.420781300010276,0.8112621000036597,True,orig-stim,20,2,2,1.25,2,up,2,0
192,1,True,237.8749749999988,800.0,50.0,33.0,0,False,2,down,0.16666666666666666,26,0,0.4394971000001533,0.4394971000001533,0.6539578999945661,True,near-000,20,5,4,3.125,2,down,2,0
193,2,True,1.0425145000044722,800.0,33.0,50.0,0,False,3,up,0.16666666666666666,44,0,0.7240468999953009,0.7240468999953009,0.5530490999954054,True,near-rnd3,20,11,8,6.875,1,up,8,1
194,1,True,1.6934237999957986,800.0,800.0,50.0,0,False,0,down,0.16666666666666666,12,0,0.21119630000612233,0.21119630000612233,1.1267375000024913,True,near-rndm,20,4,3,2.5,1,down,4,0
195,2,True,1.3355056000000332,800.0,50.0,800.0,8,False,2,down,0.16666666666666666,16,0.13598750000528526,0.29106030000548344,0.4270478000107687,0.5561156000039773,True,radial-star,20,5,3,3.125,1,down,4,0
196,1,True,2.0329056000045966,800.0,100.0,50.0,0,False,1,up,0.16666666666666666,19,0,0.32707010000012815,0.32707010000012815,1.2947055000113323,False,near-rnd2,20,1,0,0.625,2,up,1,0
197,1,True,1.5043279000092298,800.0,50.0,50.0,8,False,2,up,0.16666666666666666,24,0.12954929999250453,0.40526970000064466,0.5348189999931492,0.9195498000044608,True,grating-circ,20,6,5,3.75,1,up,8,0
198,2,True,1.55392700000084,800.0,50.0,800.0,8,False,2,up,0.16666666666666666,20,0.14066479999746662,0.3549929000000702,0.49565769999753684,0.47664710000390187,True,radial-check,20,2,2,1.25,1,up,4,0
199,1,True,1.5359930000122404,800.0,50.0,100.0,8,False,2,down,0.16666666666666666,18,0.13031100000080187,0.30706359999021515,0.437374599991017,0.6126665000047069,True,grating-gauss,20,5,4,3.125,2,down,2,0
200,2,True,1.8430909000016982,800.0,50.0,800.0,8,False,2,down,0.16666666666666666,16,0.13357089999772143,0.29162479999649804,0.42519569999421947,0.8774222000065492,True,radial-anulus,20,13,9,8.125,1,down,4,1
201,3,True,1.9348678999958793,800.0,50.0,50.0,8,False,2,down,0.16666666666666666,20,0.14670310000656173,0.3716788999881828,0.5183819999947445,0.610970499998075,True,grating-circ,21,1,1,0.625,1,down,4,0
202,2,True,1.4781917000073008,800.0,50.0,100.0,8,False,2,down,0.16666666666666666,18,0.13744030000816565,0.32909010000003036,0.466530400008196,0.6327783000015188,False,grating-gauss,21,6,4,3.75,2,down,2,0
203,1,True,5.382693399995333,800.0,50.0,800.0,8,False,2,up,0.16666666666666666,20,0.12983850001182873,0.34611860000586603,0.47595710001769476,0.7235183999873698,False,radial-check,21,3,2,1.875,1,up,4,0
204,1,True,1.8253393000049982,800.0,50.0,33.0,0,False,2,down,0.16666666666666666,26,0,0.4378974000137532,0.4378974000137532,0.6285826000093948,True,near-000,21,6,5,3.75,2,down,2,0
205,3,True,1.255684800009476,800.0,50.0,33.0,8,False,2,up,0.16666666666666666,14,0.14120240000193007,0.6970697000069777,0.8382721000089077,0.5045591000089189,True,orig-stim,21,3,3,1.875,2,up,2,0
206,1,True,3.306378399996902,800.0,50.0,800.0,8,False,2,down,0.16666666666666666,16,0.13117639999836683,0.27822829999786336,0.4094046999962302,2.0728713999997126,False,radial-star,21,6,3,3.75,1,down,4,0
207,1,True,5.033047099990654,800.0,800.0,50.0,0,False,0,down,0.16666666666666666,12,0,0.21233979999669828,0.21233979999669828,1.2637933999940287,False,near-rndm,21,5,3,3.125,1,down,4,0
208,2,True,2.000705799990101,800.0,100.0,50.0,0,False,1,up,0.16666666666666666,19,0,0.34962300000188407,0.34962300000188407,0.7851656000129879,True,near-rnd2,21,2,1,1.25,2,up,1,0
209,1,True,4.313890400007949,800.0,33.0,50.0,0,False,3,down,0.16666666666666666,42,0,0.6811133000010159,0.6811133000010159,2.547067999999854,True,near-rnd3,21,1,1,0.625,1,down,2,0
210,2,True,1.2736004999896977,800.0,50.0,800.0,8,False,2,down,0.16666666666666666,16,0.1391797999967821,0.2975309000030393,0.4367106999998214,1.1122029999969527,False,radial-anulus,21,14,9,8.75,1,down,4,1
211,2,True,2.3667974999989383,800.0,50.0,33.0,8,False,2,up,0.16666666666666666,14,0.13658180000493303,0.2598298000084469,0.39641160001337994,2.2443428999977186,False,orig-stim,22,4,3,2.5,2,up,2,0
212,1,True,1.7651674000080675,800.0,50.0,50.0,8,False,2,down,0.16666666666666666,20,0.1302780999976676,0.3423995999910403,0.4726776999887079,0.5913048999937018,True,grating-circ,22,2,2,1.25,1,down,4,0
213,1,True,1.7935894999973243,800.0,800.0,50.0,0,False,0,down,0.16666666666666666,12,0,0.20972440000332426,0.20972440000332426,1.06867800001055,True,near-rndm,22,6,4,3.75,1,down,4,0
214,3,True,1.511295300006168,800.0,100.0,50.0,0,False,1,up,0.16666666666666666,19,0,0.36397150000266265,0.36397150000266265,0.7820559999963734,True,near-rnd2,22,3,2,1.875,2,up,1,0
215,1,True,3.1659218999993755,800.0,50.0,100.0,8,False,2,down,0.16666666666666666,18,0.13106649999099318,0.3110062000050675,0.4420726999960607,1.5268699000007473,True,grating-gauss,22,7,5,4.375,2,down,2,0
216,3,True,1.5548821999982465,800.0,50.0,800.0,8,False,2,up,0.16666666666666666,20,0.14380540000274777,0.368795800008229,0.5126012000109768,1.2409766000055242,False,radial-check,22,4,2,2.5,1,up,4,0
217,1,True,6.404740300000412,800.0,50.0,800.0,8,False,2,down,0.16666666666666666,16,0.1300584999989951,0.2775320000073407,0.4075905000063358,1.1301500999979908,False,radial-anulus,22,15,9,9.375,1,down,4,1
218,1,True,1.7377771000028588,800.0,50.0,33.0,0,False,2,down,0.16666666666666666,26,0,0.44099450000794604,0.44099450000794604,0.8374011999985669,True,near-000,22,7,6,4.375,2,down,2,0
219,2,True,1.134540899991407,800.0,50.0,800.0,8,False,2,down,0.16666666666666666,16,0.14057649999449495,0.7873270999989472,0.9279035999934422,0.3951953999930993,True,radial-star,22,7,4,4.375,1,down,4,0
220,2,True,1.9060546999971848,800.0,33.0,50.0,0,False,3,down,0.16666666666666666,42,0,0.6970454999973299,0.6970454999973299,0.96246140000585,False,near-rnd3,22,2,1,1.25,2,down,2,0
221,1,True,5.772530600006576,800.0,50.0,33.0,8,False,2,up,0.16666666666666666,14,0.13191399999777786,0.2519853999983752,0.3838993999961531,0.9822864000016125,False,orig-stim,23,5,3,3.125,2,up,2,0
222,1,True,2.900150300003588,800.0,100.0,50.0,0,False,1,up,0.16666666666666666,19,0,0.33192219999909867,0.33192219999909867,1.1561837000044761,True,near-rnd2,23,4,3,2.5,2,up,1,0
223,1,True,4.559019799999078,800.0,50.0,800.0,8,False,2,down,0.16666666666666666,16,0.13071140000829473,0.2781715000019176,0.4088829000102123,1.4922898000077112,False,radial-anulus,23,16,9,10.0,1,down,4,1
224,2,True,1.5439366000064183,800.0,800.0,50.0,0,False,0,down,0.16666666666666666,12,0,0.2224352000048384,0.2224352000048384,3.087513200007379,False,near-rndm,23,7,4,4.375,1,down,4,0
225,3,True,1.1352078000054462,800.0,33.0,50.0,0,False,3,down,0.16666666666666666,42,0,0.7052914000087185,0.7052914000087185,0.6063991999981226,True,near-rnd3,23,3,2,1.875,2,down,2,0
226,3,True,1.171229300001869,800.0,50.0,33.0,0,False,2,down,0.16666666666666666,26,0,0.9138154000102077,0.9138154000102077,0.4671639000007417,True,near-000,23,8,7,5.0,2,down,2,0
227,1,True,4.010420399994473,800.0,50.0,800.0,8,False,2,down,0.16666666666666666,16,0.1820268000010401,0.2806538000004366,0.4626806000014767,1.7878216999961296,False,radial-star,23,8,4,5.0,1,down,4,0
228,1,True,5.447732200002065,800.0,50.0,800.0,8,False,2,up,0.16666666666666666,20,0.132847100001527,0.34376950000296347,0.47661660000449046,0.9699478999973508,True,radial-check,23,5,3,3.125,1,up,4,0
229,4,True,2.4314197999919998,800.0,50.0,100.0,8,False,2,down,0.16666666666666666,18,0.14829610000015236,0.34580470000219066,0.494100800002343,0.6035666999960085,True,grating-gauss,23,8,6,5.0,2,down,2,0
230,1,True,2.3827362000010908,800.0,50.0,50.0,8,False,2,down,0.16666666666666666,20,0.2770466999936616,0.34244560000661295,0.6194923000002746,0.5144960999896284,True,grating-circ,23,3,3,1.875,1,down,4,0
231,2,True,7.0683851999929175,800.0,50.0,800.0,8,False,2,down,0.16666666666666666,16,0.13589619999402203,0.29293139999208506,0.4288275999861071,1.4316500999993877,False,radial-anulus,24,17,9,10.625,1,down,4,2
232,1,True,15.86173050000798,800.0,800.0,50.0,0,False,0,down,0.16666666666666666,12,0,0.21233029999712016,0.21233029999712016,1.7342295999987982,True,near-rndm,24,8,5,5.0,1,down,4,0
233,2,True,1.5451663999992888,800.0,100.0,50.0,0,False,1,up,0.16666666666666666,19,0,0.34816599999612663,0.34816599999612663,1.1127013000077568,False,near-rnd2,24,5,3,3.125,2,up,1,0
234,2,True,1.3771548999939114,800.0,50.0,800.0,8,False,2,up,0.16666666666666666,20,0.13537279999582097,0.3558802000043215,0.4912530000001425,0.8084718000027351,True,radial-check,24,6,4,3.75,1,up,4,0
235,1,True,3.4882901000091806,800.0,50.0,33.0,0,False,2,down,0.16666666666666666,26,0,0.4405810000025667,0.4405810000025667,1.3941644000005908,False,near-000,24,9,7,5.625,2,down,2,1
236,6,True,1.6702389999991283,800.0,50.0,800.0,8,False,2,down,0.16666666666666666,16,0.16435429999546614,0.3504164000041783,0.5147706999996444,0.7370108000031905,True,radial-star,24,9,5,5.625,1,down,4,1
237,3,True,1.3786205000069458,800.0,33.0,50.0,0,False,3,down,0.16666666666666666,42,0,0.6978377000050386,0.6978377000050386,0.6824562999972841,True,near-rnd3,24,4,3,2.5,2,down,2,0
238,3,True,17.194670900003985,800.0,50.0,33.0,8,False,2,up,0.16666666666666666,14,0.14364760000898968,0.28192600001057144,0.4255736000195611,1.6355233999929624,False,orig-stim,24,6,3,3.75,2,up,2,0
239,1,True,6.851189900000463,800.0,50.0,100.0,8,False,2,down,0.16666666666666666,18,0.1328079999948386,0.3103197000018554,0.443127699996694,0.5783410999865737,True,grating-gauss,24,9,7,5.625,2,down,2,1
240,3,True,2.060441300011007,800.0,50.0,50.0,8,False,2,down,0.16666666666666666,16,0.14777789999789093,0.3064306000014767,0.45420849999936763,0.589282800006913,True,grating-circ,24,1,1,0.625,1,down,4,0
241,3,True,1.152926299997489,800.0,50.0,50.0,8,False,2,down,0.16666666666666666,16,0.1449195999884978,0.31433409999590367,0.45925369998440146,1.6047363999969093,False,grating-circ,25,2,1,1.25,1,down,4,0
242,2,True,1.8663647999928799,800.0,50.0,800.0,8,False,2,up,0.16666666666666666,17,0.1354496999992989,0.30915359999926295,0.44460329999856185,2.3050006999983452,True,radial-anulus,25,1,1,0.625,1,up,1,0
243,2,True,1.8115649999963352,800.0,50.0,800.0,8,False,2,up,0.16666666666666666,20,0.13812299999699462,0.3662082999944687,0.5043312999914633,1.689941300006467,True,radial-check,25,7,5,4.375,1,up,4,0
244,4,True,1.7375035000004573,800.0,50.0,33.0,8,False,2,up,0.16666666666666666,14,0.15243740000005346,0.2907225999952061,0.44315999999525957,1.0135444000043208,True,orig-stim,25,7,4,4.375,2,up,2,0
245,2,True,1.9913018999941414,800.0,50.0,800.0,8,False,2,down,0.16666666666666666,16,0.6355479000048945,0.2932669000001624,0.9288148000050569,2.7598237000056542,False,radial-star,25,10,5,6.25,1,down,4,1
246,4,True,1.466140999997151,800.0,800.0,50.0,0,False,0,down,0.16666666666666666,12,0,0.2423426000023028,0.2423426000023028,1.2982395999861183,False,near-rndm,25,9,5,5.625,1,down,4,1
247,3,True,1.7392865999863716,800.0,50.0,33.0,0,False,2,down,0.16666666666666666,26,0,0.47012240000185557,0.47012240000185557,2.0570521999907214,True,near-000,25,10,8,6.25,2,down,2,1
248,4,True,1.985989699998754,800.0,50.0,100.0,8,False,2,down,0.16666666666666666,18,0.15530949999811128,1.006586099989363,1.1618955999874743,0.0651032000023406,True,grating-gauss,25,10,8,6.25,2,down,2,1
249,2,True,1.2638767999887932,800.0,33.0,50.0,0,False,3,down,0.16666666666666666,42,0,0.6974107999994885,0.6974107999994885,1.2131648000067798,False,near-rnd3,25,5,3,3.125,2,down,2,0
250,2,True,1.6364658999955282,800.0,100.0,50.0,0,False,1,up,0.16666666666666666,19,0,0.34025419999670703,0.34025419999670703,0.7691274000098929,True,near-rnd2,25,6,4,3.75,2,up,1,0
251,1,True,1.5664395000057993,800.0,50.0,33.0,8,False,2,up,0.16666666666666666,14,0.13150230000610463,0.24694919999456033,0.37845150000066496,1.2181003000005148,False,orig-stim,26,8,4,5.0,2,up,2,0
252,2,True,1.1248672000074293,800.0,100.0,50.0,0,False,1,up,0.16666666666666666,19,0,0.35070189999532886,0.35070189999532886,1.0514705999958096,False,near-rnd2,26,7,4,4.375,2,up,1,0
253,2,True,1.0857391000026837,800.0,50.0,100.0,8,False,2,down,0.16666666666666666,18,0.13530989999708254,0.32959150000533555,0.4649014000024181,0.7764060000044992,True,grating-gauss,26,11,9,6.875,2,down,2,1
254,1,True,3.1881208999984665,800.0,800.0,50.0,0,False,0,down,0.16666666666666666,12,0,0.21180550000281073,0.21180550000281073,1.0897228999965591,False,near-rndm,26,10,5,6.25,1,down,4,1
