trial,primeIter,primeCorrect,primeTime,primeDepth,stimDepth,extraDepth,driveFrames,nearToFar,diopters,direction,size,intensity,extraLatency,mainLatency,totalLatency,responseTime,correct,caseLabel,caseTrial,trialsAtStep,stepCorrect,expected,w,direction,stepsize,stepChange
1,3,True,1.4450347000001784,33.0,100.0,800.0,10,True,2,start,0.16666666666666666,60,0.17874559999927442,1.0190671999998813,1.1978127999991557,0.6397721000003003,True,far-160,1,1,1,0.625,0.5,start,16,0
2,2,True,2.8093761000000086,33.0,800.0,100.0,0,True,3,start,0.16666666666666666,60,0,0.9906737000001158,0.9906737000001158,0.49713689999953203,True,far-rnd3,1,1,1,0.625,0.5,start,16,0
3,2,True,1.7912600999998176,33.0,50.0,100.0,0,True,1,start,0.16666666666666666,60,0,0.9955557000002955,0.9955557000002955,0.4840444999999818,True,far-rnd1,1,1,1,0.625,0.5,start,16,0
4,2,True,2.1579405000002225,33.0,100.0,800.0,5,True,2,start,0.16666666666666666,60,0.08921430000009423,1.0087833999996292,1.0979976999997234,0.5359736999998859,True,far-080,1,1,1,0.625,0.5,start,16,0
5,3,True,1.891178900000341,33.0,100.0,800.0,0,True,2,start,0.16666666666666666,60,0,1.0029703000000154,1.0029703000000154,0.5166035999991436,True,far-000,1,1,1,0.625,0.5,start,16,0
6,1,True,3.5444407999993928,33.0,33.0,100.0,0,False,0,start,0.16666666666666666,60,0,0.9751307999995333,0.9751307999995333,1.4929147000002558,True,far-rnd0,1,1,1,0.625,0.5,start,16,0
7,1,True,1.671863200000189,33.0,800.0,100.0,0,True,3,start,0.16666666666666666,44,0,0.7331082000000606,0.7331082000000606,1.0386062999996284,True,far-rnd3,2,1,1,0.625,1.0,start,16,0
8,2,True,1.541179199999533,33.0,33.0,100.0,0,False,0,start,0.16666666666666666,44,0,0.7201672000001054,0.7201672000001054,0.3133662000000186,True,far-rnd0,2,1,1,0.625,1.0,start,16,0
9,2,True,1.3910169999999198,33.0,100.0,800.0,5,True,2,start,0.16666666666666666,44,0.09154340000077354,0.752682499999537,0.8442259000003105,1.0770025000001624,False,far-080,2,1,0,0.625,1.0,start,16,0
10,4,True,1.4717210999997405,33.0,100.0,800.0,10,True,2,start,0.16666666666666666,44,0.18440240000018093,0.7584486999994624,0.9428510999996433,0.562627600000269,True,far-160,2,1,1,0.625,1.0,start,16,0
11,1,True,2.241314500000044,33.0,50.0,100.0,0,True,1,start,0.16666666666666666,44,0,0.7303061000002344,0.7303061000002344,0.7870579999998881,True,far-rnd1,2,1,1,0.625,1.0,start,16,0
12,4,True,1.6687949999995908,33.0,100.0,800.0,0,True,2,start,0.16666666666666666,44,0,0.7466738000002806,0.7466738000002806,0.6840830000001006,True,far-000,2,1,1,0.625,1.0,start,16,0
13,2,True,1.1696633999999904,33.0,33.0,100.0,0,False,0,start,0.16666666666666666,28,0,0.4663393000000724,0.4663393000000724,0.48109369999929186,True,far-rnd0,3,1,1,0.625,1.0,start,16,0
14,2,True,1.7821929000001546,33.0,800.0,100.0,0,True,3,start,0.16666666666666666,28,0,0.4846062999995411,0.4846062999995411,1.9697119000002203,False,far-rnd3,3,1,0,0.625,1.0,start,16,0
15,4,True,1.127944199999547,33.0,100.0,800.0,5,True,2,start,0.16666666666666666,44,0.09364019999975426,0.7593644000007771,0.8530046000005314,0.6352987999998732,False,far-080,3,2,0,1.25,1.0,start,16,0
16,2,True,1.8300853000000643,33.0,50.0,100.0,0,True,1,start,0.16666666666666666,28,0,0.4744598999996015,0.4744598999996015,1.0371988999995665,False,far-rnd1,3,1,0,0.625,1.0,start,16,0
17,2,True,3.115139999999883,33.0,100.0,800.0,10,True,2,start,0.16666666666666666,28,0.17236080000020593,0.4988485000003493,0.6712093000005552,0.7552991000002294,False,far-160,3,1,0,0.625,1.0,start,16,0
18,2,True,0.8534583999999086,33.0,100.0,800.0,0,True,2,start,0.16666666666666666,28,0,0.48540000000048167,0.48540000000048167,1.2743571999999403,True,far-000,3,1,1,0.625,1.0,start,16,0
19,1,True,2.5980891999997766,33.0,100.0,800.0,0,True,2,start,0.16666666666666666,12,0,0.22399870000026567,0.22399870000026567,1.5089179999995395,False,far-000,4,1,0,0.625,0.5,start,16,0
20,3,True,3.133688200000506,33.0,800.0,100.0,0,True,3,up,0.16666666666666666,36,0,0.6134272999997847,0.6134272999997847,2.2421917000001486,True,far-rnd3,4,1,1,0.625,0.5,up,8,0
21,2,True,1.516758700000537,33.0,100.0,800.0,5,True,2,up,0.16666666666666666,52,0.09283839999989141,0.8774081000001388,0.9702465000000302,0.8195562000000791,True,far-080,4,1,1,0.625,0.5,up,8,0
22,1,True,2.437482500000442,33.0,50.0,100.0,0,True,1,up,0.16666666666666666,36,0,0.6025149999995847,0.6025149999995847,1.2574844000000667,False,far-rnd1,4,1,0,0.625,0.5,up,8,0
23,1,True,3.2943247000002884,33.0,33.0,100.0,0,False,0,start,0.16666666666666666,12,0,0.20948950000001787,0.20948950000001787,1.7812391000006755,False,far-rnd0,4,1,0,0.625,0.5,start,16,0
24,2,True,2.1094105000001946,33.0,100.0,800.0,10,True,2,up,0.16666666666666666,36,0.16918379999970057,0.6211870000006456,0.7903708000003462,0.8575244000003295,True,far-160,4,1,1,0.625,0.5,up,8,0
25,3,True,2.619363599999815,33.0,33.0,100.0,0,False,0,up,0.16666666666666666,20,0,0.3449027999995451,0.3449027999995451,1.0444972000004782,True,far-rnd0,5,1,1,0.625,0.5,up,8,0
26,2,True,2.181893300000411,33.0,100.0,800.0,10,True,2,up,0.16666666666666666,36,0.17121169999973063,0.6177371000003404,0.7889488000000711,0.7247684000003574,True,far-160,5,2,2,1.25,1,up,8,0
27,4,True,2.9182849999997416,33.0,800.0,100.0,0,True,3,up,0.16666666666666666,36,0,0.6206125999997312,0.6206125999997312,1.0120563000000402,False,far-rnd3,5,2,1,1.25,1,up,8,0
28,2,True,1.209270700000161,33.0,50.0,100.0,0,True,1,up,0.16666666666666666,36,0,0.6076090999995358,0.6076090999995358,0.8827656999992541,True,far-rnd1,5,2,1,1.25,1,up,8,0
29,2,True,2.4975425999991785,33.0,100.0,800.0,5,True,2,up,0.16666666666666666,52,0.09518060000027617,0.8759624999993321,0.9711430999996082,0.37435420000019803,False,far-080,5,2,1,1.25,1,up,8,0
30,1,True,2.731705199999851,33.0,100.0,800.0,0,True,2,up,0.16666666666666666,20,0,0.3550654000000577,0.3550654000000577,1.1742169999997714,True,far-000,5,1,1,0.625,0.5,up,8,0
31,3,True,1.1979326000000583,33.0,100.0,800.0,0,True,2,up,0.16666666666666666,20,0,0.3631221000005098,0.3631221000005098,0.8351161000000502,False,far-000,6,2,1,1.25,1,up,8,0
32,1,True,1.4397705999999744,33.0,50.0,100.0,0,True,1,up,0.16666666666666666,36,0,0.5986976999993203,0.5986976999993203,1.5603645999999571,True,far-rnd1,6,3,2,1.875,1,up,8,0
33,1,True,4.225278800000524,33.0,100.0,800.0,5,True,2,up,0.16666666666666666,52,0.08796290000009321,0.8761799000003521,0.9641428000004453,0.42798039999979665,True,far-080,6,3,2,1.875,1,up,8,0
34,1,True,1.7835783000000447,33.0,100.0,800.0,10,True,2,up,0.16666666666666666,36,0.17245399999956135,0.6137790000002497,0.786232999999811,1.4731990999998743,False,far-160,6,3,2,1.875,1,up,8,0
35,1,True,1.630747600000177,33.0,800.0,100.0,0,True,3,up,0.16666666666666666,36,0,0.6024055999996563,0.6024055999996563,1.6619894000004933,False,far-rnd3,6,3,1,1.875,1,up,8,0
36,2,True,1.5894064999993134,33.0,33.0,100.0,0,False,0,up,0.16666666666666666,20,0,0.33926049999990937,0.33926049999990937,0.6401961000001393,True,far-rnd0,6,2,2,1.25,1,up,8,0
37,4,True,1.2363027000001239,33.0,100.0,800.0,5,True,2,up,0.16666666666666666,52,0.09933470000032685,0.893101999999999,0.9924367000003258,0.5210177000008116,False,far-080,7,4,2,2.5,1,up,8,0
38,1,True,1.8852194999999483,33.0,33.0,100.0,0,False,0,up,0.16666666666666666,20,0,0.33041119999961666,0.33041119999961666,0.6602934000002278,True,far-rnd0,7,3,3,1.875,1,up,8,0
39,1,True,1.8154248999999254,33.0,50.0,100.0,0,True,1,up,0.16666666666666666,36,0,0.6016342000002624,0.6016342000002624,0.6276623000003383,True,far-rnd1,7,4,3,2.5,1,up,8,0
40,2,True,1.4846864000001005,33.0,800.0,100.0,0,True,3,up,0.16666666666666666,36,0,0.6065689999995811,0.6065689999995811,0.7022785999997723,True,far-rnd3,7,4,2,2.5,1,up,8,0
41,1,True,2.2190643000003547,33.0,100.0,800.0,10,True,2,up,0.16666666666666666,36,0.1695915000000241,0.6196545000002516,0.7892460000002757,0.5854342000002362,True,far-160,7,4,3,2.5,1,up,8,0
42,1,True,1.8905681000005643,33.0,100.0,800.0,0,True,2,up,0.16666666666666666,20,0,0.3556745999994746,0.3556745999994746,1.858956200000648,False,far-000,7,3,1,1.875,1,up,8,0
43,2,True,2.1166257000004407,33.0,100.0,800.0,5,True,2,up,0.16666666666666666,52,0.09823899999992136,0.8892071999998734,0.9874461999997948,0.14959280000039143,True,far-080,8,5,3,3.125,1,up,8,0
44,3,True,1.0483119999998962,33.0,800.0,100.0,0,True,3,up,0.16666666666666666,36,0,0.6084829999999783,0.6084829999999783,2.081174699999792,False,far-rnd3,8,5,2,3.125,1,up,8,0
45,1,True,2.2899831999993694,33.0,100.0,800.0,10,True,2,up,0.16666666666666666,36,0.17233759999999165,0.6323456000000078,0.8046831999999995,0.995259199999964,True,far-160,8,5,4,3.125,1,up,8,0
46,2,True,1.5095326000000568,33.0,33.0,100.0,0,False,0,down,0.16666666666666666,16,0,0.27153050000015355,0.27153050000015355,0.7778733999994074,True,far-rnd0,8,1,1,0.625,1,down,4,0
47,3,True,1.7830727999998999,33.0,100.0,800.0,0,True,2,up,0.16666666666666666,20,0,0.3608758000000307,0.3608758000000307,0.9224149000001489,True,far-000,8,4,2,2.5,1,up,8,0
48,1,True,2.3205603000005794,33.0,50.0,100.0,0,True,1,up,0.16666666666666666,36,0,0.6051047000000835,0.6051047000000835,0.6090598999999202,True,far-rnd1,8,5,4,3.125,1,up,8,0
49,2,True,1.8407697999991797,33.0,100.0,800.0,10,True,2,up,0.16666666666666666,36,0.1739956000001257,0.6214996999997311,0.7954952999998568,0.9112056000003577,True,far-160,9,6,5,3.75,1,up,8,0
50,1,True,2.2885466000007,33.0,50.0,100.0,0,True,1,up,0.16666666666666666,36,0,0.6042990000005375,0.6042990000005375,0.6224947999999131,True,far-rnd1,9,6,5,3.75,1,up,8,0
51,2,True,1.1318343000002642,33.0,100.0,800.0,5,True,2,up,0.16666666666666666,52,0.09473040000011679,0.8806770000001052,0.975407400000222,0.41986590000033175,True,far-080,9,6,4,3.75,1,up,8,0
52,3,True,1.1468457999999373,33.0,33.0,100.0,0,False,0,down,0.16666666666666666,16,0,0.2796615999995993,0.2796615999995993,0.7279699999999139,True,far-rnd0,9,2,2,1.25,1,down,4,0
53,2,True,2.732156600000053,33.0,100.0,800.0,0,True,2,up,0.16666666666666666,20,0,0.36719629999970493,0.36719629999970493,1.0442490999994334,True,far-000,9,5,3,3.125,1,up,8,0
54,2,True,1.3312015999999858,33.0,800.0,100.0,0,True,3,up,0.16666666666666666,44,0,0.7327649999997448,0.7327649999997448,1.4934055000003355,False,far-rnd3,9,1,0,0.625,1,up,8,0
55,1,True,2.4304676000001564,33.0,50.0,100.0,0,True,1,down,0.16666666666666666,32,0,0.6010837000003448,0.6010837000003448,0.7269562999999835,True,far-rnd1,10,1,1,0.625,1,down,4,0
56,1,True,1.2539962999999261,33.0,33.0,100.0,0,False,0,down,0.16666666666666666,16,0,0.2703504000000976,0.2703504000000976,0.7246932999996716,False,far-rnd0,10,3,2,1.875,1,down,4,0
57,1,True,1.9608785999998872,33.0,800.0,100.0,0,True,3,up,0.16666666666666666,44,0,0.7334577999999965,0.7334577999999965,1.740412400000423,False,far-rnd3,10,2,0,1.25,1,up,8,0
58,2,True,2.063523499999974,33.0,100.0,800.0,0,True,2,up,0.16666666666666666,20,0,0.35780999999951746,0.35780999999951746,2.1177168999993228,True,far-000,10,6,4,3.75,1,up,8,0
59,4,True,1.418635600000016,33.0,100.0,800.0,10,True,2,down,0.16666666666666666,32,0.18429999999989377,0.5680222999999387,0.7523222999998325,0.563557899999978,False,far-160,10,1,0,0.625,1,down,4,0
60,1,True,1.7650094000000536,33.0,100.0,800.0,5,True,2,up,0.16666666666666666,52,0.09078219999992143,0.8734349999995175,0.9642171999994389,0.6207352000001265,True,far-080,10,7,5,4.375,1,up,8,0
61,1,True,2.3648544999996375,33.0,100.0,800.0,0,True,2,up,0.16666666666666666,20,0,0.3514330999996673,0.3514330999996673,1.2895853999998508,False,far-000,11,7,4,4.375,1,up,8,0
62,2,True,1.3993434000003617,33.0,50.0,100.0,0,True,1,down,0.16666666666666666,32,0,0.5483181999998124,0.5483181999998124,1.3061182000001281,False,far-rnd1,11,2,1,1.25,1,down,4,0
63,3,True,1.2955384999995658,33.0,100.0,800.0,5,True,2,up,0.16666666666666666,52,0.10182329999952344,0.8955939000006765,0.9974172000002,1.1126672999998846,True,far-080,11,8,6,5.0,1,up,8,0
64,4,True,1.5469711999994615,33.0,800.0,100.0,0,True,3,up,0.16666666666666666,52,0,0.871776900000441,0.871776900000441,0.8994906999996601,True,far-rnd3,11,1,1,0.625,1,up,8,0
65,4,True,1.5339197000002969,33.0,100.0,800.0,10,True,2,down,0.16666666666666666,32,0.1735631999999896,0.5765074999999342,0.7500706999999238,1.7963142999997217,False,far-160,11,2,0,1.25,1,down,4,0
66,2,True,1.2324114999992162,33.0,33.0,100.0,0,False,0,down,0.16666666666666666,16,0,0.2726827999995294,0.2726827999995294,1.3228445000004285,False,far-rnd0,11,4,2,2.5,1,down,4,0
67,1,True,1.6068311999997604,33.0,100.0,800.0,0,True,2,up,0.16666666666666666,20,0,0.35292179999942164,0.35292179999942164,1.836275100000421,False,far-000,12,8,4,5.0,1,up,8,0
68,2,True,2.7739003999995475,33.0,800.0,100.0,0,True,3,up,0.16666666666666666,52,0,0.8650307999996585,0.8650307999996585,0.9919976999999562,True,far-rnd3,12,2,2,1.25,1,up,8,0
69,3,True,1.9561524000000645,33.0,100.0,800.0,10,True,2,up,0.16666666666666666,34,0.17845070000021224,0.5922624999993786,0.7707131999995909,0.6740532000003441,True,far-160,12,1,1,0.625,1,up,2,0
70,1,True,2.143303700000615,33.0,50.0,100.0,0,True,1,down,0.16666666666666666,32,0,0.5424291999997877,0.5424291999997877,0.42449110000052315,True,far-rnd1,12,3,2,1.875,1,down,4,0
71,2,True,1.7274447999998301,33.0,33.0,100.0,0,False,0,down,0.16666666666666666,16,0,0.27277700000013283,0.27277700000013283,0.6891582999996899,False,far-rnd0,12,5,2,3.125,1,down,4,0
72,1,True,2.172959399999854,33.0,100.0,800.0,5,True,2,up,0.16666666666666666,52,0.09009949999926903,0.8914996999992582,0.9815991999985272,0.24658809999982623,False,far-080,12,9,6,5.625,1,up,8,1
73,2,True,1.8685390000000552,33.0,100.0,800.0,5,True,2,up,0.16666666666666666,52,0.08979839999938122,0.8815939999994953,0.9713923999988765,0.24673729999994976,False,far-080,13,10,6,6.25,1,up,8,1
74,4,True,1.2422304000001532,33.0,800.0,100.0,0,True,3,up,0.16666666666666666,52,0,0.8686060999998517,0.8686060999998517,0.6601897000000463,True,far-rnd3,13,3,3,1.875,1,up,8,0
75,1,True,1.523616899999979,33.0,50.0,100.0,0,True,1,down,0.16666666666666666,32,0,0.6918243999998595,0.6918243999998595,0.38148699999965174,True,far-rnd1,13,4,3,2.5,1,down,4,0
76,2,True,1.7534735999997793,33.0,100.0,800.0,0,True,2,up,0.16666666666666666,20,0,0.36569669999971666,0.36569669999971666,1.0193851999993058,True,far-000,13,9,5,5.625,1,up,8,1
77,1,True,1.7128265000001193,33.0,33.0,100.0,0,False,0,up,0.16666666666666666,18,0,0.2997023000007175,0.2997023000007175,0.556584599999951,True,far-rnd0,13,1,1,0.625,1,up,2,0
78,3,True,1.2037789000005432,33.0,100.0,800.0,10,True,2,up,0.16666666666666666,34,0.1803663000000597,0.602904899999885,0.7832711999999447,0.5602045000005091,False,far-160,13,2,1,1.25,2,up,2,0
79,2,True,1.510818200000358,33.0,100.0,800.0,0,True,2,up,0.16666666666666666,20,0,0.3661253999998735,0.3661253999998735,0.9330103000002055,False,far-000,14,10,5,6.25,1,up,8,1
80,3,True,1.5998767000000953,33.0,100.0,800.0,10,True,2,up,0.16666666666666666,34,0.1705201999993733,0.6026947000000291,0.7732148999994024,0.5959046999996644,False,far-160,14,3,1,1.875,2,up,2,0
81,1,True,2.0871432999992976,33.0,33.0,100.0,0,False,0,up,0.16666666666666666,18,0,0.3009522000002107,0.3009522000002107,1.0071209999996427,True,far-rnd0,14,2,2,1.25,2,up,2,0
82,1,True,1.438597899999877,33.0,100.0,800.0,5,True,2,up,0.16666666666666666,52,0.09135500000047614,0.8735625999997865,0.9649176000002626,0.2797693000002255,False,far-080,14,11,6,6.875,1,up,8,1
83,4,True,1.8865129999994679,33.0,50.0,100.0,0,True,1,down,0.16666666666666666,32,0,0.5600749000004726,0.5600749000004726,0.7005122999999003,False,far-rnd1,14,5,3,3.125,1,down,4,0
84,2,True,1.2883747000005314,33.0,800.0,100.0,0,True,3,down,0.16666666666666666,48,0,0.803095299999768,0.803095299999768,0.6492504999996527,True,far-rnd3,14,1,1,0.625,1,down,4,0
85,4,True,1.479328400000668,33.0,50.0,100.0,0,True,1,down,0.16666666666666666,32,0,0.5527201000004425,0.5527201000004425,0.5815124000000651,False,far-rnd1,15,6,3,3.75,1,down,4,0
86,2,True,2.544426000000385,33.0,33.0,100.0,0,False,0,up,0.16666666666666666,18,0,0.30468540000038047,0.30468540000038047,0.5203446000004988,True,far-rnd0,15,3,3,1.875,2,up,2,0
87,2,True,2.015786500000104,33.0,100.0,800.0,0,True,2,up,0.16666666666666666,24,0,0.42084560000057536,0.42084560000057536,0.873139600000286,False,far-000,15,1,0,0.625,1,up,4,0
88,2,True,2.483430600000247,33.0,100.0,800.0,10,True,2,up,0.16666666666666666,34,0.16968249999990803,0.5951739000001908,0.7648564000000988,1.4764200999998138,True,far-160,15,4,2,2.5,2,up,2,0
89,1,True,1.5102810999997018,33.0,100.0,800.0,5,True,2,up,0.16666666666666666,52,0.09168589999990218,0.8705039999995279,0.96218989999943,0.3822368999999526,True,far-080,15,12,7,7.5,1,up,8,1
90,4,True,1.6068997000002128,33.0,800.0,100.0,0,True,3,down,0.16666666666666666,48,0,0.8149826999997458,0.8149826999997458,2.0631071999996493,True,far-rnd3,15,2,2,1.25,1,down,4,0
91,2,True,2.523304100000132,33.0,50.0,100.0,0,True,1,down,0.16666666666666666,32,0,0.5415421999996397,0.5415421999996397,0.7974782999999661,True,far-rnd1,16,7,4,4.375,1,down,4,0
92,3,True,0.9942656999992323,33.0,33.0,100.0,0,False,0,up,0.16666666666666666,18,0,0.31258729999990464,0.31258729999990464,0.7548731999995653,True,far-rnd0,16,4,4,2.5,2,up,2,0
93,4,True,1.4073893999993743,33.0,100.0,800.0,5,True,2,up,0.16666666666666666,52,0.09820570000010775,0.900104299999839,0.9983099999999467,0.49151739999979327,True,far-080,16,13,8,8.125,1,up,8,1
94,2,True,1.3276803999997355,33.0,100.0,800.0,0,True,2,up,0.16666666666666666,24,0,0.42149500000050466,0.42149500000050466,1.5084135999995851,False,far-000,16,2,0,1.25,1,up,4,0
95,1,True,1.671340799999598,33.0,100.0,800.0,10,True,2,up,0.16666666666666666,34,0.17412059999969642,0.6398831000005885,0.8140037000002849,1.5538887000002433,True,far-160,16,5,3,3.125,2,up,2,0
96,1,True,3.1497133999992,33.0,800.0,100.0,0,True,3,down,0.16666666666666666,48,0,0.7972307000000001,0.7972307000000001,1.9575365999999121,True,far-rnd3,16,3,3,1.875,1,down,4,0
97,1,True,2.439619599999787,33.0,100.0,800.0,0,True,2,up,0.16666666666666666,28,0,0.48694199999954435,0.48694199999954435,1.464025700000093,False,far-000,17,1,0,0.625,1,up,4,0
98,2,True,1.74983229999998,33.0,800.0,100.0,0,True,3,down,0.16666666666666666,44,0,0.7399201000007452,0.7399201000007452,0.9864260000003924,False,far-rnd3,17,1,0,0.625,1,down,4,0
99,3,True,1.2664676000003965,33.0,100.0,800.0,5,True,2,up,0.16666666666666666,52,0.10020309999981691,0.8861155000004146,0.9863186000002315,0.39935610000065935,True,far-080,17,14,9,8.75,1,up,8,1
100,2,True,1.2221503999999186,33.0,33.0,100.0,0,False,0,up,0.16666666666666666,18,0,0.30081930000051216,0.30081930000051216,0.6479503000000477,True,far-rnd0,17,5,5,3.125,2,up,2,0
101,3,True,1.1576555000001463,33.0,100.0,800.0,10,True,2,up,0.16666666666666666,34,0.17566350000015518,0.6867136000000755,0.8623771000002307,0.4624805000003107,True,far-160,17,6,4,3.75,2,up,2,0
102,2,True,1.4973700000000463,33.0,50.0,100.0,0,True,1,down,0.16666666666666666,32,0,0.5462391999999454,0.5462391999999454,0.6375479999996969,True,far-rnd1,17,8,5,5.0,1,down,4,0
103,4,True,3.997677599999406,33.0,33.0,100.0,0,False,0,up,0.16666666666666666,18,0,0.32089910000013333,0.32089910000013333,0.4922303000003012,True,far-rnd0,18,6,6,3.75,2,up,2,0
104,1,True,2.7669060999996873,33.0,100.0,800.0,5,True,2,up,0.16666666666666666,52,0.09126279999964027,0.8807219000000259,0.9719846999996662,0.23059049999937997,True,far-080,18,15,10,9.375,1,up,8,1
105,2,True,1.746407900000122,33.0,100.0,800.0,10,True,2,up,0.16666666666666666,34,0.17558569999982865,0.7575910999994449,0.9331767999992735,0.5429213999996136,True,far-160,18,7,5,4.375,2,up,2,0
106,2,True,0.8899310999995578,33.0,50.0,100.0,0,True,1,down,0.16666666666666666,32,0,0.5438644999994722,0.5438644999994722,0.8339860000005501,False,far-rnd1,18,9,5,5.625,1,down,4,1
107,2,True,1.1351367999996,33.0,100.0,800.0,0,True,2,up,0.16666666666666666,28,0,0.48073980000026495,0.48073980000026495,0.9550206000003527,False,far-000,18,2,0,1.25,1,up,4,0
108,2,True,2.2415775999998004,33.0,800.0,100.0,0,True,3,down,0.16666666666666666,44,0,0.7417075000003024,0.7417075000003024,0.6165106999997079,False,far-rnd3,18,2,0,1.25,1,down,4,0
109,3,True,0.8249001000003773,33.0,800.0,100.0,0,True,3,up,0.16666666666666666,46,0,0.7788501000004544,0.7788501000004544,0.7706369999996241,False,far-rnd3,19,1,0,0.625,1,up,2,0
110,2,True,1.6878733000003194,33.0,100.0,800.0,5,True,2,up,0.16666666666666666,52,0.09982920000038575,0.8860654000000068,0.9858946000003925,0.2783105999997133,True,far-080,19,16,11,10.0,1,up,8,1
111,2,True,1.4882695000005697,33.0,50.0,100.0,0,True,1,down,0.16666666666666666,32,0,0.5434178999994401,0.5434178999994401,1.3449655000003986,False,far-rnd1,19,10,5,6.25,1,down,4,1
112,2,True,2.252978299999995,33.0,33.0,100.0,0,False,0,down,0.16666666666666666,17,0,0.29284459999962564,0.29284459999962564,0.7108523999995668,True,far-rnd0,19,1,1,0.625,2,down,1,0
113,2,True,1.5270512999995844,33.0,100.0,800.0,10,True,2,up,0.16666666666666666,34,0.1720234000003984,0.5907645999996021,0.7627880000000005,0.660410899999988,True,far-160,19,8,6,5.0,2,up,2,0
114,2,True,1.3799036999998862,33.0,100.0,800.0,0,True,2,up,0.16666666666666666,36,0,0.6138448000001517,0.6138448000001517,1.7446183000001838,False,far-000,19,1,0,0.625,1,up,8,0
115,1,True,1.2378202999998393,33.0,800.0,100.0,0,True,3,up,0.16666666666666666,46,0,0.7627503999992769,0.7627503999992769,0.767942800000128,False,far-rnd3,20,2,0,1.25,2,up,2,0
116,2,True,0.9399863999997251,33.0,33.0,100.0,0,False,0,down,0.16666666666666666,17,0,0.2886566999995921,0.2886566999995921,0.6981759999998758,False,far-rnd0,20,2,1,1.25,2,down,1,0
117,1,True,1.3591295999995054,33.0,50.0,100.0,0,True,1,up,0.16666666666666666,33,0,0.5572646000000532,0.5572646000000532,0.5459968999994089,True,far-rnd1,20,1,1,0.625,1,up,1,0
118,1,True,1.3383024999993722,33.0,100.0,800.0,0,True,2,up,0.16666666666666666,36,0,0.612363500000356,0.612363500000356,0.9849429999994754,False,far-000,20,2,0,1.25,1,up,8,0
119,1,True,1.2505102000004626,33.0,100.0,800.0,10,True,2,up,0.16666666666666666,34,0.17459319999943546,0.5871227999996336,0.761715999999069,1.2147851999998238,False,far-160,20,9,6,5.625,2,up,2,1
120,1,True,1.16642580000007,33.0,100.0,800.0,5,True,2,up,0.16666666666666666,52,0.08724069999971107,0.8768773000001602,0.9641179999998712,0.6418601000004855,True,far-080,20,17,12,10.625,1,up,8,2
121,2,True,2.014495100000204,33.0,33.0,100.0,0,False,0,down,0.16666666666666666,17,0,0.2918859000001248,0.2918859000001248,0.6351096999997026,False,far-rnd0,21,3,1,1.875,2,down,1,0
122,2,True,3.420106200000191,33.0,100.0,800.0,10,True,2,up,0.16666666666666666,34,0.17395080000005692,0.5959257999993497,0.7698765999994066,0.5162567000006675,True,far-160,21,10,7,6.25,2,up,2,1
123,1,True,2.803529800000433,33.0,100.0,800.0,0,True,2,up,0.16666666666666666,52,0,0.8641245999997409,0.8641245999997409,0.5170137000004615,True,far-000,21,1,1,0.625,1,up,16,0
124,3,True,1.4025881999996272,33.0,100.0,800.0,5,True,2,down,0.16666666666666666,51,0.09928760000002512,0.8741785000001983,0.9734661000002234,2.171214300000429,True,far-080,21,1,1,0.625,1,down,1,0
125,2,True,2.0626915000002555,33.0,50.0,100.0,0,True,1,up,0.16666666666666666,33,0,0.5640291000008801,0.5640291000008801,1.106546399999388,False,far-rnd1,21,2,1,1.25,2,up,1,0
126,2,True,2.3703229000002466,33.0,800.0,100.0,0,True,3,up,0.16666666666666666,46,0,0.7669269000007262,0.7669269000007262,1.111855299999661,False,far-rnd3,21,3,0,1.875,2,up,2,0
127,1,True,2.252790599999571,33.0,33.0,100.0,0,False,0,down,0.16666666666666666,17,0,0.2886761999998271,0.2886761999998271,0.7648644000000786,False,far-rnd0,22,4,1,2.5,2,down,1,0
128,1,True,2.1319030000004204,33.0,100.0,800.0,5,True,2,down,0.16666666666666666,51,0.08799999999973807,0.8657477000006111,0.9537477000003491,0.5376170999998067,True,far-080,22,2,2,1.25,2,down,1,0
129,2,True,2.33648439999979,33.0,100.0,800.0,0,True,2,up,0.16666666666666666,52,0,0.8729474000001574,0.8729474000001574,0.3923368000005212,True,far-000,22,2,2,1.25,1.0,up,16,0
130,1,True,2.1655054000002565,33.0,800.0,100.0,0,True,3,up,0.16666666666666666,46,0,0.761116800000309,0.761116800000309,0.8178493999994316,True,far-rnd3,22,4,1,2.5,2,up,2,0
131,1,True,4.228594300000623,33.0,50.0,100.0,0,True,1,up,0.16666666666666666,33,0,0.5569130999992922,0.5569130999992922,0.5839402999999947,False,far-rnd1,22,3,1,1.875,2,up,1,0
132,1,True,1.353050799999437,33.0,100.0,800.0,10,True,2,up,0.16666666666666666,34,0.1711847000005946,0.5900890000002619,0.7612737000008565,0.4632448000002114,True,far-160,22,11,8,6.875,2,up,2,1
133,2,True,1.4701615000003585,33.0,100.0,800.0,0,True,2,up,0.16666666666666666,52,0,0.8703937000000224,0.8703937000000224,0.6127522999995563,True,far-000,23,3,3,1.875,1.0,up,16,0
134,4,True,1.0512045000004946,33.0,800.0,100.0,0,True,3,up,0.16666666666666666,46,0,0.7756131000005553,0.7756131000005553,1.179156199999852,False,far-rnd3,23,5,1,3.125,2,up,2,0
135,3,True,1.9696584000002986,33.0,100.0,800.0,5,True,2,down,0.16666666666666666,51,0.10454550000031304,0.8726415000000998,0.9771870000004128,0.48218569999971805,True,far-080,23,3,3,1.875,2,down,1,0
136,1,True,2.1062646999998833,33.0,50.0,100.0,0,True,1,up,0.16666666666666666,33,0,0.553071500000442,0.553071500000442,0.8602730000002339,False,far-rnd1,23,4,1,2.5,2,up,1,0
137,1,True,1.9501458999993702,33.0,100.0,800.0,10,True,2,up,0.16666666666666666,34,0.16839700000036828,0.5862595999997211,0.7546566000000894,0.6638246000002255,False,far-160,23,12,8,7.5,2,up,2,1
138,1,True,1.3135873000001084,33.0,33.0,100.0,0,False,0,down,0.16666666666666666,17,0,0.2848844999998619,0.2848844999998619,0.7166015000002517,False,far-rnd0,23,5,1,3.125,2,down,1,0
139,2,True,3.051322700000128,33.0,50.0,100.0,0,True,1,up,0.16666666666666666,33,0,0.5666252999999415,0.5666252999999415,0.5555019000003085,False,far-rnd1,24,5,1,3.125,2,up,1,0
140,2,True,1.275928500000191,33.0,33.0,100.0,0,False,0,up,0.16666666666666666,18,0,0.30925089999982447,0.30925089999982447,0.6501989999997022,False,far-rnd0,24,1,0,0.625,2,up,1,0
141,2,True,3.0879833999997572,33.0,100.0,800.0,5,True,2,down,0.16666666666666666,51,0.09153390000028594,0.8726152999997794,0.9641492000000653,0.7214260999999169,False,far-080,24,4,3,2.5,2,down,1,0
142,3,True,1.5389463999999862,33.0,100.0,800.0,0,True,2,down,0.16666666666666666,44,0,0.74445680000008,0.74445680000008,0.3461733000003733,False,far-000,24,1,0,0.625,0.5,down,8,0
143,1,True,2.895571000000018,33.0,800.0,100.0,0,True,3,up,0.16666666666666666,48,0,0.7945535999997446,0.7945535999997446,0.6521579000000202,True,far-rnd3,24,1,1,0.625,2,up,2,0
144,1,True,2.0171715999995286,33.0,100.0,800.0,10,True,2,up,0.16666666666666666,34,0.16943690000061906,0.6143739999997706,0.7838109000003897,1.1805819999999585,False,far-160,24,13,8,8.125,2,up,2,1
145,2,True,1.8435349999999744,33.0,33.0,100.0,0,False,0,up,0.16666666666666666,18,0,0.3046003000008568,0.3046003000008568,0.5895599999994374,False,far-rnd0,25,2,0,1.25,3,up,1,0
146,2,True,1.6350198000000091,33.0,100.0,800.0,0,True,2,down,0.16666666666666666,44,0,0.7424798000001829,0.7424798000001829,0.5769338000000062,True,far-000,25,2,1,1.25,1,down,8,0
147,2,True,0.8601208999998562,33.0,50.0,100.0,0,True,1,up,0.16666666666666666,34,0,0.5728923000006034,0.5728923000006034,0.3764004999993631,True,far-rnd1,25,1,1,0.625,2,up,1,0
148,3,True,2.6659945000001244,33.0,100.0,800.0,10,True,2,up,0.16666666666666666,34,0.17291759999989154,0.6099242999998751,0.7828418999997666,0.5304899000002479,True,far-160,25,14,9,8.75,2,up,2,1
149,2,True,2.514160599999741,33.0,800.0,100.0,0,True,3,up,0.16666666666666666,48,0,0.7953785999998217,0.7953785999998217,0.5040104999998221,False,far-rnd3,25,2,1,1.25,2,up,2,0
150,1,True,2.6752465999998094,33.0,100.0,800.0,5,True,2,down,0.16666666666666666,51,0.0944126000003962,0.8571946000001844,0.9516072000005806,0.3262630999997782,True,far-080,25,5,4,3.125,2,down,1,0
151,1,True,1.8638902000002417,33.0,50.0,100.0,0,True,1,up,0.16666666666666666,34,0,0.569530499999928,0.569530499999928,0.9152410000006057,True,far-rnd1,26,2,2,1.25,2,up,1,0
152,3,True,1.091143099999499,33.0,33.0,100.0,0,False,0,up,0.16666666666666666,18,0,0.31378180000046996,0.31378180000046996,0.5521007999996073,True,far-rnd0,26,3,1,1.875,3,up,1,0
153,2,True,3.7279656000000614,33.0,100.0,800.0,0,True,2,down,0.16666666666666666,44,0,0.7457782999999836,0.7457782999999836,0.8604057000002285,True,far-000,26,3,2,1.875,1,down,8,0
154,2,True,1.845893900000192,33.0,100.0,800.0,10,True,2,up,0.16666666666666666,34,0.17567959999996674,0.5897834000006696,0.7654630000006364,0.9407769999997981,False,far-160,26,15,9,9.375,2,up,2,1
155,2,True,1.0430679000000964,33.0,100.0,800.0,5,True,2,down,0.16666666666666666,51,0.09038629999940895,0.8696700999998939,0.9600563999993028,0.97056160000011,True,far-080,26,6,5,3.75,2,down,1,0
156,2,True,1.5260748000000603,33.0,800.0,100.0,0,True,3,up,0.16666666666666666,48,0,0.7977664000000004,0.7977664000000004,0.879981800000678,False,far-rnd3,26,3,1,1.875,2,up,2,0
157,1,True,4.343072599999687,33.0,50.0,100.0,0,True,1,up,0.16666666666666666,34,0,0.5730807999998433,0.5730807999998433,0.5572190000002593,True,far-rnd1,27,3,3,1.875,2,up,1,0
158,2,True,1.5611192000005758,33.0,33.0,100.0,0,False,0,up,0.16666666666666666,18,0,0.3076429000002463,0.3076429000002463,0.6514454999996815,False,far-rnd0,27,4,1,2.5,3,up,1,0
159,3,True,2.2022563000000446,33.0,100.0,800.0,10,True,2,up,0.16666666666666666,34,0.17130879999967874,0.6061493999995946,0.7774581999992733,0.7542441000005056,True,far-160,27,16,10,10.0,2,up,2,1
160,1,True,2.2044762000004994,33.0,800.0,100.0,0,True,3,up,0.16666666666666666,48,0,0.7996075000000928,0.7996075000000928,2.7019679000004544,False,far-rnd3,27,4,1,2.5,2,up,2,0
161,4,True,1.7937657999991643,33.0,100.0,800.0,0,True,2,down,0.16666666666666666,44,0,0.7532209000000876,0.7532209000000876,1.4851416999999856,False,far-000,27,4,2,2.5,1,down,8,0
162,1,True,1.7044671999992715,33.0,100.0,800.0,5,True,2,down,0.16666666666666666,51,0.09316099999978178,0.8569282999997085,0.9500892999994903,0.6722118000006958,True,far-080,27,7,6,4.375,2,down,1,0
163,2,True,1.085643400000663,33.0,100.0,800.0,5,True,2,down,0.16666666666666666,51,0.09022520000053191,0.8718678000004729,0.9620930000010048,0.46311450000030163,True,far-080,28,8,7,5.0,2,down,1,0
164,1,True,3.31451079999988,33.0,800.0,100.0,0,True,3,up,0.16666666666666666,48,0,0.7907469000001583,0.7907469000001583,0.5277901000008569,True,far-rnd3,28,5,2,3.125,2,up,2,0
165,2,True,1.32115739999972,33.0,50.0,100.0,0,True,1,up,0.16666666666666666,34,0,0.5721942999998646,0.5721942999998646,0.7166121999998722,True,far-rnd1,28,4,4,2.5,2,up,1,0
166,2,True,1.4776050000000396,33.0,100.0,800.0,10,True,2,up,0.16666666666666666,34,0.17634929999985616,0.5903244000000996,0.7666736999999557,1.244465200000377,True,far-160,28,17,11,10.625,2,up,2,2
167,3,True,1.546587300000283,33.0,100.0,800.0,0,True,2,down,0.16666666666666666,44,0,0.7506676000002699,0.7506676000002699,0.27126439999938157,False,far-000,28,5,2,3.125,1,down,8,0
168,4,True,2.2976131999994323,33.0,33.0,100.0,0,False,0,up,0.16666666666666666,18,0,0.3161835000000792,0.3161835000000792,0.5438156999998682,True,far-rnd0,28,5,2,3.125,3,up,1,0
169,3,True,3.1633686999994097,33.0,33.0,100.0,0,False,0,up,0.16666666666666666,18,0,0.3124497999997402,0.3124497999997402,0.5493053999998665,False,far-rnd0,29,6,2,3.75,3,up,1,0
170,3,True,1.2790982000005897,33.0,800.0,100.0,0,True,3,up,0.16666666666666666,48,0,0.8031375999999,0.8031375999999,0.8176118000001225,True,far-rnd3,29,6,3,3.75,2,up,2,0
171,2,True,1.575425200000609,33.0,50.0,100.0,0,True,1,up,0.16666666666666666,34,0,0.5800159999998868,0.5800159999998868,0.604796599999645,False,far-rnd1,29,5,4,3.125,2,up,1,0
172,3,True,1.1484632000001511,33.0,100.0,800.0,5,True,2,down,0.16666666666666666,51,0.09632640000018,0.8790057000005618,0.9753321000007418,0.17216610000014043,False,far-080,29,9,7,5.625,2,down,1,1
173,2,True,2.1153434999996534,33.0,100.0,800.0,0,True,2,up,0.16666666666666666,48,0,0.8136389000001145,0.8136389000001145,0.5149878000001991,True,far-000,29,1,1,0.625,1,up,4,0
174,3,True,1.9808241000000635,33.0,100.0,800.0,10,True,2,up,0.16666666666666666,34,0.17390380000051664,0.5981281999993371,0.7720319999998537,1.6910006999996767,False,far-160,29,18,11,11.25,2,up,2,2
175,2,True,1.388064700000541,33.0,100.0,800.0,0,True,2,up,0.16666666666666666,48,0,0.8061087999994925,0.8061087999994925,0.6165498000009393,True,far-000,30,2,2,1.25,1,up,4,0
176,3,True,1.3298159999994823,33.0,50.0,100.0,0,True,1,up,0.16666666666666666,34,0,0.5823488999994879,0.5823488999994879,0.546632800000225,True,far-rnd1,30,6,5,3.75,2,up,1,0
177,2,True,2.458817499998986,33.0,100.0,800.0,5,True,2,down,0.16666666666666666,51,0.09292079999977432,0.8685065999998187,0.961427399999593,0.26526209999974526,True,far-080,30,10,8,6.25,2,down,1,1
178,1,True,3.1896044999994047,33.0,33.0,100.0,0,False,0,up,0.16666666666666666,18,0,0.3016196000007767,0.3016196000007767,0.6201388000008592,False,far-rnd0,30,7,2,4.375,3,up,1,0
179,2,True,1.7324253999995562,33.0,800.0,100.0,0,True,3,up,0.16666666666666666,48,0,0.8060015000010026,0.8060015000010026,0.5362471999997069,False,far-rnd3,30,7,3,4.375,2,up,2,0
180,1,True,2.439492799998334,33.0,100.0,800.0,10,True,2,up,0.16666666666666666,34,0.16625899999962712,0.5870273000000452,0.7532862999996723,0.5834051999991061,False,far-160,30,19,11,11.875,2,up,2,2
181,2,True,1.5212750000009692,33.0,800.0,100.0,0,True,3,up,0.16666666666666666,48,0,0.7995112999997218,0.7995112999997218,1.6224722000006295,True,far-rnd3,31,8,4,5.0,2,up,2,0
182,2,True,1.781540899999527,33.0,100.0,800.0,0,True,2,up,0.16666666666666666,48,0,0.8095621000011306,0.8095621000011306,0.9673052000016469,True,far-000,31,3,3,1.875,1,up,4,0
183,4,True,2.614760299999034,33.0,100.0,800.0,10,True,2,up,0.16666666666666666,34,0.17584010000064154,0.6055747000009433,0.7814148000015848,0.3373843000008492,False,far-160,31,20,11,12.5,2,up,2,2
184,1,True,1.5975632000008773,33.0,100.0,800.0,5,True,2,down,0.16666666666666666,51,0.0918519999995624,0.863333799999964,0.9551857999995264,1.200951899998472,False,far-080,31,11,8,6.875,2,down,1,1
185,4,True,1.487527699999191,33.0,33.0,100.0,0,False,0,up,0.16666666666666666,18,0,0.3215894999993907,0.3215894999993907,0.5086898999998084,True,far-rnd0,31,8,3,5.0,3,up,1,0
186,4,True,1.8484157999992021,33.0,50.0,100.0,0,True,1,up,0.16666666666666666,34,0,0.5822320000006584,0.5822320000006584,0.5153725999989547,True,far-rnd1,31,7,6,4.375,2,up,1,0
187,1,True,1.458452099999704,33.0,50.0,100.0,0,True,1,up,0.16666666666666666,34,0,0.5678786000007676,0.5678786000007676,1.416839199999231,False,far-rnd1,32,8,6,5.0,2,up,1,0
188,3,True,1.5187893000002077,33.0,100.0,800.0,0,True,2,down,0.16666666666666666,46,0,0.7872753999999986,0.7872753999999986,0.585597900000721,True,far-000,32,1,1,0.625,1,down,2,0
189,3,True,1.557397000000492,33.0,800.0,100.0,0,True,3,up,0.16666666666666666,48,0,0.8044960999995965,0.8044960999995965,0.3817754000010609,True,far-rnd3,32,9,5,5.625,2,up,2,1
190,1,True,1.4490827999998146,33.0,100.0,800.0,5,True,2,down,0.16666666666666666,51,0.09314919999997073,0.8582065999999031,0.9513557999998739,0.47006150000015623,True,far-080,32,12,9,7.5,2,down,1,1
191,2,True,1.9054114999999001,33.0,100.0,800.0,10,True,2,up,0.16666666666666666,34,0.1693109000007098,0.6041441000015766,0.7734550000022864,0.6193872000003466,True,far-160,32,21,12,13.125,2,up,2,2
192,3,True,1.4239197000006243,33.0,100.0,800.0,0,True,2,down,0.16666666666666666,46,0,0.7743832000014663,0.7743832000014663,0.5774560000008933,True,far-000,33,2,2,1.25,2,down,2,0
193,1,True,1.4664825999989262,33.0,50.0,100.0,0,True,1,up,0.16666666666666666,34,0,0.5685501000007207,0.5685501000007207,0.3267551999997522,True,far-rnd1,33,9,7,5.625,2,up,1,1
194,1,True,1.0748987999995734,33.0,800.0,100.0,0,True,3,up,0.16666666666666666,48,0,0.7929662999995344,0.7929662999995344,0.7381217000001925,False,far-rnd3,33,10,5,6.25,2,up,2,1
195,1,True,2.0910093000002234,33.0,100.0,800.0,10,True,2,up,0.16666666666666666,34,0.1723242999996728,0.5837651000001642,0.756089399999837,0.4232186000008369,True,far-160,33,22,13,13.75,2,up,2,2
196,1,True,1.9993135999993683,33.0,100.0,800.0,5,True,2,down,0.16666666666666666,51,0.09275830000115093,0.8696866999998747,0.9624450000010256,0.2378984999995737,True,far-080,33,13,10,8.125,2,down,1,1
197,1,True,2.484679299999698,33.0,50.0,100.0,0,True,1,up,0.16666666666666666,34,0,0.5744353999998566,0.5744353999998566,0.5140322999995988,True,far-rnd1,34,10,8,6.25,2,up,1,1
198,2,True,1.458770100000038,33.0,100.0,800.0,10,True,2,up,0.16666666666666666,34,0.1692084000005707,0.596801300000152,0.7660097000007227,0.681048100001135,False,far-160,34,23,13,14.375,2,up,2,2
199,1,True,2.3906996000005165,33.0,100.0,800.0,5,True,2,down,0.16666666666666666,51,0.09439870000096562,0.8564960000003339,0.9508947000012995,0.61127420000048,True,far-080,34,14,11,8.75,2,down,1,1
200,1,True,2.7591765000015585,33.0,100.0,800.0,0,True,2,down,0.16666666666666666,46,0,0.7677141999993182,0.7677141999993182,0.6758033000005526,True,far-000,34,3,3,1.875,2,down,2,0
201,3,True,1.1501036999998178,33.0,800.0,100.0,0,True,3,up,0.16666666666666666,48,0,0.8027061000011599,0.8027061000011599,0.4594433999991452,True,far-rnd3,34,11,6,6.875,2,up,2,1
202,1,True,1.5562142999988282,33.0,100.0,800.0,5,True,2,down,0.16666666666666666,50,0.08776339999894844,0.8546745999992709,0.9424379999982193,0.6721429999997781,True,far-080,35,1,1,0.625,2,down,1,0
203,3,True,1.1776287000011507,33.0,100.0,800.0,10,True,2,up,0.16666666666666666,34,0.17617620000055467,0.6007050999996864,0.776881300000241,0.48121330000140006,True,far-160,35,24,14,15.0,2,up,2,2
204,4,True,1.278999099999055,33.0,50.0,100.0,0,True,1,up,0.16666666666666666,34,0,0.5901754999995319,0.5901754999995319,0.47890430000006745,True,far-rnd1,35,11,9,6.875,2,up,1,1
205,1,True,2.7724070999993273,33.0,800.0,100.0,0,True,3,up,0.16666666666666666,48,0,0.7930949999990844,0.7930949999990844,0.519827100000839,True,far-rnd3,35,12,7,7.5,2,up,2,1
206,2,True,2.4359774999993533,33.0,100.0,800.0,0,True,2,down,0.16666666666666666,46,0,0.7768799999994371,0.7768799999994371,0.7990442999998777,True,far-000,35,4,4,2.5,2,down,2,0
207,3,True,1.6839036000001215,33.0,100.0,800.0,0,True,2,down,0.16666666666666666,46,0,0.7792837999986659,0.7792837999986659,0.30401220000021567,True,far-000,36,5,5,3.125,2,down,2,0
208,3,True,1.0248862999997073,33.0,800.0,100.0,0,True,3,up,0.16666666666666666,48,0,0.8036554000009346,0.8036554000009346,0.6178559999989375,True,far-rnd3,36,13,8,8.125,2,up,2,1
209,1,True,1.7290601000004244,33.0,100.0,800.0,5,True,2,down,0.16666666666666666,50,0.09062909999920521,0.8459802999987005,0.9366093999979057,0.30302259999916714,True,far-080,36,2,2,1.25,3,down,1,0
210,2,True,1.3975355999991734,33.0,100.0,800.0,5,True,2,down,0.16666666666666666,50,0.08905790000062552,0.8473580999998376,0.9364160000004631,1.2386812999993708,True,far-080,37,3,3,1.875,3,down,1,0
211,1,True,1.8273248999994394,33.0,100.0,800.0,0,True,2,down,0.16666666666666666,46,0,0.7668512999989616,0.7668512999989616,0.6783336999997118,False,far-000,37,6,5,3.75,2,down,2,0
212,1,True,1.6924242999994021,33.0,800.0,100.0,0,True,3,up,0.16666666666666666,48,0,0.7916253999992477,0.7916253999992477,0.7617590999998356,True,far-rnd3,37,14,9,8.75,2,up,2,1
213,1,True,1.431855099999666,33.0,100.0,800.0,5,True,2,down,0.16666666666666666,50,0.09096140000110609,0.8466155000005529,0.9375769000016589,0.5892845999987912,True,far-080,38,4,4,2.5,3,down,1,0
214,2,True,1.654989699998623,33.0,100.0,800.0,0,True,2,down,0.16666666666666666,46,0,0.7753146999984892,0.7753146999984892,0.8137517000013759,False,far-000,38,7,5,4.375,2,down,2,0
215,1,True,1.9491485999988072,33.0,800.0,100.0,0,True,3,up,0.16666666666666666,48,0,0.7941092000000936,0.7941092000000936,0.7767320000002655,True,far-rnd3,38,15,10,9.375,2,up,2,1
216,2,True,2.133713199998965,33.0,100.0,800.0,0,True,2,down,0.16666666666666666,46,0,0.7738815000011527,0.7738815000011527,0.5456909999993513,True,far-000,39,8,6,5.0,2,down,2,0
217,1,True,1.4939964000004693,33.0,100.0,800.0,5,True,2,down,0.16666666666666666,50,0.09229900000173075,0.8533802999991167,0.9456793000008474,0.32096350000028906,True,far-080,39,5,5,3.125,3,down,1,0
218,1,True,5.350620399998661,33.0,800.0,100.0,0,True,3,up,0.16666666666666666,48,0,0.7932880999996996,0.7932880999996996,2.764265100000557,False,far-rnd3,39,16,10,10.0,2,up,2,1
219,2,True,1.7547360000007757,33.0,800.0,100.0,0,True,3,up,0.16666666666666666,48,0,0.7954723999991984,0.7954723999991984,0.5019913999985874,True,far-rnd3,40,17,11,10.625,2,up,2,2
220,3,True,0.987336399999549,33.0,100.0,800.0,5,True,2,down,0.16666666666666666,50,0.10037879999981669,0.8501289999985602,0.9505077999983769,0.2479566000001796,True,far-080,40,6,6,3.75,3,down,1,0
221,3,True,1.8213225999988936,33.0,100.0,800.0,0,True,2,down,0.16666666666666666,46,0,0.7756251999999222,0.7756251999999222,0.4004666000000725,True,far-000,40,9,7,5.625,2,down,2,1
222,2,True,1.8662817000003997,33.0,800.0,100.0,0,True,3,up,0.16666666666666666,48,0,0.8010138999998162,0.8010138999998162,0.6195012000007409,True,far-rnd3,41,18,12,11.25,2,up,2,2
223,2,True,1.4431440999996994,33.0,100.0,800.0,5,True,2,down,0.16666666666666666,50,0.09354639999946812,0.8455711999995401,0.9391175999990082,0.47011269999893557,True,far-080,41,7,7,4.375,3,down,1,0
224,4,True,1.2223092999993241,33.0,100.0,800.0,0,True,2,down,0.16666666666666666,46,0,0.7766777000015281,0.7766777000015281,0.4184419000011985,True,far-000,41,10,8,6.25,2,down,2,1
225,2,True,1.2133135000003676,33.0,100.0,800.0,0,True,2,down,0.16666666666666666,46,0,0.7781730000006064,0.7781730000006064,0.5112656000001152,True,far-000,42,11,9,6.875,2,down,2,1
226,2,True,1.49686759999895,33.0,100.0,800.0,5,True,2,down,0.16666666666666666,50,0.09430900000006659,0.8581032000001869,0.9524122000002535,0.7122331999999005,True,far-080,42,8,8,5.0,3,down,1,0
227,4,True,0.8995827000017016,33.0,800.0,100.0,0,True,3,up,0.16666666666666666,48,0,0.8093609000006836,0.8093609000006836,1.4995906000003743,False,far-rnd3,42,19,12,11.875,2,up,2,2
228,4,True,1.1484969000011915,33.0,800.0,100.0,0,True,3,up,0.16666666666666666,48,0,0.8140055000003485,0.8140055000003485,0.9690565000000788,True,far-rnd3,43,20,13,12.5,2,up,2,2
229,2,True,1.926227399999334,33.0,100.0,800.0,0,True,2,down,0.16666666666666666,45,0,0.7606694999994943,0.7606694999994943,0.6641903999989154,True,far-000,43,1,1,0.625,2,down,1,0
230,2,True,1.446999899999355,33.0,100.0,800.0,0,True,2,down,0.16666666666666666,45,0,0.760185499999352,0.760185499999352,0.49912769999900775,True,far-000,44,2,2,1.25,2,down,1,0
231,2,True,2.7741805000005115,33.0,800.0,100.0,0,True,3,up,0.16666666666666666,48,0,0.8028434999996534,0.8028434999996534,0.6623439000013605,True,far-rnd3,44,21,14,13.125,2,up,2,2
232,1,True,2.4773318999996263,33.0,800.0,100.0,0,True,3,up,0.16666666666666666,48,0,0.7998846999998932,0.7998846999998932,1.7985641000013857,True,far-rnd3,45,22,15,13.75,2,up,2,2
233,2,True,1.8570459999991726,33.0,100.0,800.0,0,True,2,down,0.16666666666666666,45,0,0.7577856000007159,0.7577856000007159,0.40137510000022303,True,far-000,45,3,3,1.875,2,down,1,0
234,1,True,1.672819100000197,33.0,800.0,100.0,0,True,3,up,0.16666666666666666,48,0,0.7979030999995302,0.7979030999995302,0.7283524000013131,False,far-rnd3,46,23,15,14.375,2,up,2,2
235,2,True,1.1067048999993858,33.0,100.0,800.0,0,True,2,down,0.16666666666666666,45,0,0.757349499999691,0.757349499999691,0.32083329999841226,True,far-000,46,4,4,2.5,2,down,1,0
236,2,True,1.438384999999471,33.0,100.0,800.0,0,True,2,down,0.16666666666666666,45,0,0.7598507000002428,0.7598507000002428,0.36749910000071395,False,far-000,47,5,4,3.125,2,down,1,0
237,1,True,2.532507000001715,33.0,800.0,100.0,0,True,3,up,0.16666666666666666,48,0,0.7913467999987915,0.7913467999987915,0.4868048999996972,True,far-rnd3,47,24,16,15.0,2,up,2,2
238,4,True,1.016957599998932,33.0,50.0,100.0,0,True,1,down,0.16666666666666666,33,0,0.5669487999984995,0.5669487999984995,0.43559970000023895,True,far-rnd1,36,1,1,0.625,2,down,16,0
239,3,True,1.4694675999999163,33.0,100.0,800.0,0,True,2,down,0.16666666666666666,45,0,0.7681379000005109,0.7681379000005109,0.22264549999999872,False,far-000,48,6,4,3.75,2,down,1,0
240,3,True,1.4727621999991243,33.0,800.0,100.0,0,True,3,up,0.16666666666666666,48,0,0.7993709999991552,0.7993709999991552,0.32832349999989674,True,far-rnd3,48,25,17,15.625,2,up,16,3
241,1,True,1.9184289000004355,33.0,33.0,100.0,0,False,0,up,0.16666666666666666,18,0,0.3004805000000488,0.3004805000000488,0.5566894999992655,True,far-rnd0,32,9,4,5.625,3,up,16,1
242,4,True,1.1343575000009878,33.0,100.0,800.0,0,True,2,down,0.16666666666666666,45,0,0.7638163000010536,0.7638163000010536,0.4615049000003637,False,far-000,49,7,4,4.375,2,down,1,0
243,2,True,1.0500566000009712,33.0,800.0,100.0,0,True,3,down,0.16666666666666666,47,0,0.7857953000002453,0.7857953000002453,0.7531947000006767,False,far-rnd3,49,1,0,0.625,0.5,down,1,0
244,1,True,2.141035099999499,33.0,33.0,100.0,0,False,0,up,0.16666666666666666,26,0,0.4309745999998995,0.4309745999998995,1.4195254999995086,True,far-rnd0,33,1,1,0.625,0.5,up,8,0
245,1,True,2.141191799999433,33.0,50.0,100.0,0,True,1,down,0.16666666666666666,32,0,0.535997299999508,0.535997299999508,1.1912720999989688,False,far-rnd1,37,1,0,0.625,1.0,down,16,0
246,1,True,1.5113068999999086,33.0,800.0,100.0,0,True,3,down,0.16666666666666666,47,0,0.7807266999989224,0.7807266999989224,0.7601007000012032,False,far-rnd3,50,2,0,1.25,2,down,1,0
247,2,True,1.8453142999987904,33.0,50.0,100.0,0,True,1,down,0.16666666666666666,32,0,0.5464438999988488,0.5464438999988488,0.525553100000252,True,far-rnd1,38,2,1,1.25,1.0,down,16,0
248,1,True,1.9689796000002389,33.0,100.0,800.0,0,True,2,down,0.16666666666666666,45,0,0.7488972999999532,0.7488972999999532,0.9699012000000948,False,far-000,50,8,4,5.0,2,down,1,0
249,1,True,1.2564789000007295,33.0,33.0,100.0,0,False,0,up,0.16666666666666666,26,0,0.4284925000010844,0.4284925000010844,0.4792710999990959,True,far-rnd0,34,2,2,1.25,1,up,8,0
250,1,True,2.16686479999953,33.0,33.0,100.0,0,False,0,up,0.16666666666666666,26,0,0.4269199000009394,0.4269199000009394,0.544188199999553,True,far-rnd0,35,3,3,1.875,1,up,8,0
251,2,True,1.3505206000008911,33.0,50.0,100.0,0,True,1,down,0.16666666666666666,31,0,0.529832099999112,0.529832099999112,0.4583517999999458,False,far-rnd1,39,1,0,0.625,0.5,down,16,0
252,1,True,3.1124503999999433,33.0,100.0,800.0,0,True,2,down,0.16666666666666666,45,0,0.7541334999987157,0.7541334999987157,0.37441410000064934,False,far-000,51,9,4,5.625,2,down,1,1
253,2,True,1.8087001999992935,33.0,800.0,100.0,0,True,3,down,0.16666666666666666,47,0,0.7828413000006549,0.7828413000006549,0.41899150000062946,False,far-rnd3,51,3,0,1.875,2,down,1,0
254,2,True,2.4479155000008177,33.0,100.0,800.0,0,True,2,down,0.16666666666666666,45,0,0.754396699998324,0.754396699998324,0.4448628000009194,False,far-000,52,10,4,6.25,2,down,1,1
