trial,primeIter,primeCorrect,primeTime,primeDepth,stimDepth,extraDepth,driveFrames,nearToFar,diopters,direction,size,intensity,extraLatency,mainLatency,totalLatency,responseTime,correct,caseLabel,caseTrial,trialsAtStep,stepCorrect,expected,w,direction,stepsize,stepChange
1,4,True,1.9129403000115417,33.0,800.0,100.0,0,True,3,start,0.16666666666666666,60,0,1.0002208999940194,1.0002208999940194,0.2037698000203818,True,far-rnd3,1,1,1,0.625,0.5,start,16,0
2,3,True,1.137846499972511,33.0,100.0,800.0,0,True,2,start,0.16666666666666666,60,0,0.9982936999876983,0.9982936999876983,0.425628199998755,True,far-000,1,1,1,0.625,0.5,start,16,0
3,2,True,1.5854198999586515,33.0,100.0,800.0,10,True,2,start,0.16666666666666666,60,0.17445349995978177,1.1226007000077516,1.2970541999675333,0.38180749997263774,True,far-160,1,1,1,0.625,0.5,start,16,0
4,4,True,2.8409777999622747,33.0,33.0,100.0,0,False,0,start,0.16666666666666666,60,0,0.9914160000043921,0.9914160000043921,1.8937428999925032,True,far-rnd0,1,1,1,0.625,0.5,start,16,0
5,1,True,1.6200882999692112,33.0,100.0,800.0,5,True,2,start,0.16666666666666666,60,0.09350799996173009,1.0112490999745205,1.1047570999362506,1.9140750999795273,False,far-080,1,1,0,0.625,0.5,start,16,0
6,1,True,1.495195599971339,33.0,50.0,100.0,0,True,1,start,0.16666666666666666,60,0,0.9854319999576546,0.9854319999576546,0.2249500000034459,True,far-rnd1,1,1,1,0.625,0.5,start,16,0
7,2,True,1.9295246999827214,33.0,100.0,800.0,5,True,2,start,0.16666666666666666,60,0.09079180000117049,1.0168849999899976,1.107676799991168,0.08441389998188242,True,far-080,2,2,1,1.25,1.0,start,16,0
8,2,True,0.8453730000182986,33.0,33.0,100.0,0,False,0,start,0.16666666666666666,44,0,0.7247419999912381,0.7247419999912381,0.24615210003685206,True,far-rnd0,2,1,1,0.625,1.0,start,16,0
9,1,True,1.864220599993132,33.0,800.0,100.0,0,True,3,start,0.16666666666666666,44,0,0.7294303000089712,0.7294303000089712,1.1838206999818794,False,far-rnd3,2,1,0,0.625,1.0,start,16,0
10,2,True,1.1335529999923892,33.0,100.0,800.0,10,True,2,start,0.16666666666666666,44,0.17112650000490248,0.7519824000191875,0.92310890002409,0.9182639999780804,True,far-160,2,1,1,0.625,1.0,start,16,0
11,1,True,1.8416450999793597,33.0,50.0,100.0,0,True,1,start,0.16666666666666666,44,0,0.7356071000103839,0.7356071000103839,0.946696900005918,False,far-rnd1,2,1,0,0.625,1.0,start,16,0
12,2,True,1.0427527999854647,33.0,100.0,800.0,0,True,2,start,0.16666666666666666,44,0,0.7463184000225738,0.7463184000225738,0.46732679998967797,True,far-000,2,1,1,0.625,1.0,start,16,0
13,3,True,2.219172900018748,33.0,100.0,800.0,5,True,2,start,0.16666666666666666,44,0.08970209996914491,0.7612344999797642,0.8509365999489091,0.26426009996794164,True,far-080,3,1,1,0.625,1.0,start,16,0
14,2,True,1.2139863999909721,33.0,100.0,800.0,10,True,2,start,0.16666666666666666,28,0.17871470004320145,0.5007169999880716,0.6794317000312731,1.2536675000446849,False,far-160,3,1,0,0.625,1.0,start,16,0
15,2,True,2.0053006999660283,33.0,50.0,100.0,0,True,1,start,0.16666666666666666,44,0,0.7367864999687299,0.7367864999687299,0.36788269999669865,True,far-rnd1,3,2,1,1.25,1.0,start,16,0
16,2,True,2.770487600006163,33.0,100.0,800.0,0,True,2,start,0.16666666666666666,28,0,0.48793489998206496,0.48793489998206496,0.8623404999962077,True,far-000,3,1,1,0.625,1.0,start,16,0
17,1,True,2.088536600000225,33.0,33.0,100.0,0,False,0,start,0.16666666666666666,28,0,0.4608697000076063,0.4608697000076063,0.5948411999852397,True,far-rnd0,3,1,1,0.625,1.0,start,16,0
18,3,True,1.4231789000332355,33.0,800.0,100.0,0,True,3,start,0.16666666666666666,44,0,0.7401576000265777,0.7401576000265777,0.9853061000467278,True,far-rnd3,3,2,1,1.25,1.0,start,16,0
19,4,True,1.0032602000283077,33.0,100.0,800.0,5,True,2,start,0.16666666666666666,28,0.09889130003284663,0.4993709000409581,0.5982622000738047,1.130640899995342,False,far-080,4,1,0,0.625,0.5,start,16,0
20,1,True,1.5074547000112943,33.0,800.0,100.0,0,True,3,start,0.16666666666666666,28,0,0.47737699997378513,0.47737699997378513,1.2068676999770105,True,far-rnd3,4,1,1,0.625,0.5,start,16,0
21,1,True,3.149520900042262,33.0,100.0,800.0,0,True,2,start,0.16666666666666666,12,0,0.2293109000311233,0.2293109000311233,1.7288042000145651,False,far-000,4,1,0,0.625,0.5,start,16,0
22,2,True,1.2718406000058167,33.0,50.0,100.0,0,True,1,start,0.16666666666666666,28,0,0.47770330001367256,0.47770330001367256,1.421079899999313,False,far-rnd1,4,1,0,0.625,0.5,start,16,0
23,3,True,1.4285900000249967,33.0,33.0,100.0,0,False,0,start,0.16666666666666666,12,0,0.22000579995801672,0.22000579995801672,0.8256932999938726,True,far-rnd0,4,1,1,0.625,0.5,start,16,0
24,3,True,0.84349589998601,33.0,100.0,800.0,10,True,2,up,0.16666666666666666,36,0.1765021999599412,0.6281192000024021,0.8046213999623433,1.2418935999739915,False,far-160,4,1,0,0.625,0.5,up,8,0
25,1,True,1.77726740000071,33.0,50.0,100.0,0,True,1,up,0.16666666666666666,36,0,0.5992504000314511,0.5992504000314511,0.6802563000237569,True,far-rnd1,5,1,1,0.625,0.5,up,8,0
26,2,True,1.0297612000140361,33.0,800.0,100.0,0,True,3,start,0.16666666666666666,12,0,0.22417020000284538,0.22417020000284538,2.20345010003075,False,far-rnd3,5,1,0,0.625,0.5,start,16,0
27,3,True,1.0623331000097096,33.0,100.0,800.0,10,True,2,up,0.16666666666666666,36,0.17952429997967556,0.6381620999891311,0.8176863999688067,0.776542600011453,False,far-160,5,2,0,1.25,1,up,8,0
28,2,True,1.9015152999782003,33.0,100.0,800.0,0,True,2,up,0.16666666666666666,20,0,0.3527987000416033,0.3527987000416033,1.1885270000202581,True,far-000,5,1,1,0.625,0.5,up,8,0
29,2,True,0.9597232000087388,33.0,100.0,800.0,5,True,2,up,0.16666666666666666,36,0.09471540001686662,0.6339841999579221,0.7286995999747887,0.5884106999728829,True,far-080,5,1,1,0.625,0.5,up,8,0
30,1,True,1.4290704000159167,33.0,33.0,100.0,0,False,0,start,0.16666666666666666,0,0,0.013459299982059747,0.013459299982059747,4.188552300038282,False,far-rnd0,5,1,0,0.625,0.5,start,16,0
31,3,True,0.8805878999992274,33.0,50.0,100.0,0,True,1,up,0.16666666666666666,36,0,0.6181295000133105,0.6181295000133105,0.6045380999566987,True,far-rnd1,6,2,2,1.25,1,up,8,0
32,4,True,1.0605360000045039,33.0,100.0,800.0,5,True,2,up,0.16666666666666666,36,0.09428249998018146,0.6407941000070423,0.7350765999872237,1.2108028999646194,False,far-080,6,2,1,1.25,1,up,8,0
33,2,True,1.3700618000002578,33.0,100.0,800.0,0,True,2,up,0.16666666666666666,20,0,0.35777979996055365,0.35777979996055365,1.2432278999476694,True,far-000,6,2,2,1.25,1,up,8,0
34,2,True,1.0729416999965906,33.0,800.0,100.0,0,True,3,up,0.16666666666666666,20,0,0.34756090003065765,0.34756090003065765,1.4498764000018127,False,far-rnd3,6,1,0,0.625,0.5,up,8,0
35,3,True,1.0933786000241525,33.0,33.0,100.0,0,False,0,up,0.16666666666666666,8,0,0.15049430000362918,0.15049430000362918,1.0473495000042021,False,far-rnd0,6,1,0,0.625,0.5,up,8,0
36,2,True,0.9163733000168577,33.0,100.0,800.0,10,True,2,up,0.16666666666666666,44,0.1747855999856256,0.7495667000184767,0.9243523000041023,0.42530709999846295,False,far-160,6,1,0,0.625,1,up,8,0
37,2,True,1.3375052000046708,33.0,100.0,800.0,0,True,2,up,0.16666666666666666,20,0,0.3610297000268474,0.3610297000268474,1.849281599977985,True,far-000,7,3,3,1.875,1,up,8,0
38,1,True,1.559216900030151,33.0,33.0,100.0,0,False,0,up,0.16666666666666666,8,0,0.14246850000927225,0.14246850000927225,1.0436901000211947,False,far-rnd0,7,2,0,1.25,1,up,8,0
39,3,True,1.1847317999927327,33.0,100.0,800.0,5,True,2,up,0.16666666666666666,36,0.09545229998184368,0.635290400008671,0.7307426999905147,0.7446137000224553,False,far-080,7,3,1,1.875,1,up,8,0
40,1,True,1.5677694999612868,33.0,100.0,800.0,10,True,2,up,0.16666666666666666,44,0.1697853000368923,0.7459762000362389,0.9157615000731312,1.0820385999977589,False,far-160,7,2,0,1.25,1,up,8,0
41,3,True,1.2526215999969281,33.0,50.0,100.0,0,True,1,up,0.16666666666666666,36,0,0.6144610000192188,0.6144610000192188,0.21891970001161098,True,far-rnd1,7,3,3,1.875,1,up,8,0
42,2,True,0.9872699999832548,33.0,800.0,100.0,0,True,3,up,0.16666666666666666,20,0,0.40761890000430867,0.40761890000430867,2.682349599956069,True,far-rnd3,7,2,1,1.25,1,up,8,0
43,3,True,1.0899288000073284,33.0,100.0,800.0,0,True,2,down,0.16666666666666666,16,0,0.2998822000226937,0.2998822000226937,0.9096986000076868,False,far-000,8,1,0,0.625,1,down,4,0
44,2,True,1.0394245000206865,33.0,50.0,100.0,0,True,1,down,0.16666666666666666,32,0,0.5415529999881983,0.5415529999881983,0.8447401999728754,False,far-rnd1,8,1,0,0.625,1,down,4,0
45,2,True,0.7216134999762289,33.0,100.0,800.0,10,True,2,up,0.16666666666666666,52,0.16985920001752675,0.8826311000157148,1.0524903000332415,0.470405199972447,True,far-160,8,1,1,0.625,1,up,8,0
46,2,True,1.0978288000333123,33.0,33.0,100.0,0,False,0,up,0.16666666666666666,16,0,0.3271563000162132,0.3271563000162132,0.5360463000251912,True,far-rnd0,8,1,1,0.625,1,up,8,0
47,3,True,1.2056255000061356,33.0,100.0,800.0,5,True,2,up,0.16666666666666666,36,0.09717429999727756,0.6228048999910243,0.7199791999883018,0.5160708000184968,True,far-080,8,4,2,2.5,1,up,8,0
48,2,True,0.6887703000102192,33.0,800.0,100.0,0,True,3,up,0.16666666666666666,20,0,0.3556146999471821,0.3556146999471821,1.5219318000017665,False,far-rnd3,8,3,1,1.875,1,up,8,0
49,2,True,1.098201299959328,33.0,100.0,800.0,5,True,2,up,0.16666666666666666,36,0.09819170000264421,0.6333048999658786,0.7314965999685228,0.5514547000057064,True,far-080,9,5,3,3.125,1,up,8,0
50,2,True,1.1649235000368208,33.0,800.0,100.0,0,True,3,up,0.16666666666666666,20,0,0.34793899999931455,0.34793899999931455,0.9083918000105768,False,far-rnd3,9,4,1,2.5,1,up,8,0
51,2,True,0.9974940000101924,33.0,100.0,800.0,10,True,2,up,0.16666666666666666,52,0.17906439997022972,0.8823165000067092,1.061380899976939,1.1769734999979846,True,far-160,9,2,2,1.25,1,up,8,0
52,1,True,3.7840527000371367,33.0,50.0,100.0,0,True,1,down,0.16666666666666666,32,0,0.535542199970223,0.535542199970223,1.6087235000450164,False,far-rnd1,9,2,0,1.25,1,down,4,0
53,3,True,0.981440500007011,33.0,100.0,800.0,0,True,2,down,0.16666666666666666,16,0,0.3016244999598712,0.3016244999598712,2.0120113999582827,True,far-000,9,2,1,1.25,1,down,4,0
54,2,True,2.6782471000333317,33.0,33.0,100.0,0,False,0,up,0.16666666666666666,16,0,0.2756443999824114,0.2756443999824114,1.0620669999625534,False,far-rnd0,9,2,1,1.25,1,up,8,0
55,4,True,0.992196699953638,33.0,33.0,100.0,0,False,0,up,0.16666666666666666,16,0,0.44247180002275854,0.44247180002275854,0.5715751000097953,True,far-rnd0,10,3,2,1.875,1,up,8,0
56,2,True,1.005710099998396,33.0,100.0,800.0,10,True,2,up,0.16666666666666666,52,0.1771487999940291,0.8847396000055596,1.0618883999995887,0.3453575999592431,True,far-160,10,3,3,1.875,1,up,8,0
57,2,True,0.9789877000148408,33.0,100.0,800.0,5,True,2,up,0.16666666666666666,36,0.09310269996058196,0.6313904999988154,0.7244931999593973,1.0423314999789,True,far-080,10,6,4,3.75,1,up,8,0
58,1,True,1.3828758000163361,33.0,50.0,100.0,0,True,1,up,0.16666666666666666,34,0,0.5744804999558255,0.5744804999558255,1.0597715999465436,False,far-rnd1,10,1,0,0.625,1,up,2,0
59,2,True,0.7519473999855109,33.0,100.0,800.0,0,True,2,down,0.16666666666666666,16,0,0.2894908000016585,0.2894908000016585,0.9479952999972738,False,far-000,10,3,1,1.875,1,down,4,0
60,1,True,1.7374373999773525,33.0,800.0,100.0,0,True,3,up,0.16666666666666666,28,0,0.4740464999922551,0.4740464999922551,1.6436258000321686,False,far-rnd3,10,1,0,0.625,1,up,8,0
61,4,True,1.2922896999516524,33.0,100.0,800.0,5,True,2,up,0.16666666666666666,36,0.09566370001994073,0.7976548000006005,0.8933185000205413,0.34018230001674965,True,far-080,11,7,5,4.375,1,up,8,0
62,1,True,1.412345800024923,33.0,33.0,100.0,0,False,0,up,0.16666666666666666,16,0,0.26935600000433624,0.26935600000433624,0.7773538999608718,True,far-rnd0,11,4,3,2.5,1,up,8,0
63,2,True,1.0542652000440285,33.0,100.0,800.0,0,True,2,down,0.16666666666666666,16,0,0.2995632999809459,0.2995632999809459,1.1991135000134818,False,far-000,11,4,1,2.5,1,down,4,0
64,1,True,1.4035966000519693,33.0,800.0,100.0,0,True,3,up,0.16666666666666666,28,0,0.4728031999547966,0.4728031999547966,1.1915419999859296,True,far-rnd3,11,2,1,1.25,1,up,8,0
65,1,True,1.2408861000440083,33.0,50.0,100.0,0,True,1,up,0.16666666666666666,34,0,0.5738810000475496,0.5738810000475496,0.43302749999566004,True,far-rnd1,11,2,1,1.25,2,up,2,0
66,1,True,1.4023450000095181,33.0,100.0,800.0,10,True,2,down,0.16666666666666666,48,0.1719918999588117,0.822962699981872,0.9949545999406837,0.3518589999875985,True,far-160,11,1,1,0.625,1,down,4,0
67,2,True,1.8688792000175454,33.0,800.0,100.0,0,True,3,up,0.16666666666666666,28,0,0.4846222000196576,0.4846222000196576,1.0759958000271581,False,far-rnd3,12,3,1,1.875,1,up,8,0
68,2,True,1.5244020000100136,33.0,33.0,100.0,0,False,0,up,0.16666666666666666,16,0,0.2776999000343494,0.2776999000343494,1.0253226000349969,False,far-rnd0,12,5,3,3.125,1,up,8,0
69,1,True,1.6952592000016011,33.0,50.0,100.0,0,True,1,up,0.16666666666666666,34,0,0.5716409999877214,0.5716409999877214,0.7313101999461651,True,far-rnd1,12,3,2,1.875,2,up,2,0
70,1,True,1.550471899972763,33.0,100.0,800.0,10,True,2,down,0.16666666666666666,48,0.17254810000304133,0.9440343999885954,1.1165824999916367,0.14417330001015216,True,far-160,12,2,2,1.25,1,down,4,0
71,2,True,1.0178591999574564,33.0,100.0,800.0,5,True,2,up,0.16666666666666666,36,0.08861650002654642,0.6298743999795988,0.7184909000061452,0.4881463999627158,True,far-080,12,8,6,5.0,1,up,8,0
72,2,True,1.1848338000127114,33.0,100.0,800.0,0,True,2,up,0.16666666666666666,18,0,0.3248584999819286,0.3248584999819286,1.0425339000066742,True,far-000,12,1,1,0.625,1,up,2,0
73,2,True,1.2028385000303388,33.0,100.0,800.0,10,True,2,down,0.16666666666666666,48,0.1716125999810174,0.8256373000331223,0.9972499000141397,0.3440961000160314,False,far-160,13,3,2,1.875,1,down,4,0
74,1,True,1.6201905000489205,33.0,100.0,800.0,0,True,2,up,0.16666666666666666,18,0,0.3223668999853544,0.3223668999853544,0.8084242999902926,False,far-000,13,2,1,1.25,2,up,2,0
75,3,True,1.1007786000263877,33.0,800.0,100.0,0,True,3,up,0.16666666666666666,28,0,0.486231199989561,0.486231199989561,1.2826981999678537,False,far-rnd3,13,4,1,2.5,1,up,8,0
76,1,True,1.7049236999591812,33.0,33.0,100.0,0,False,0,up,0.16666666666666666,16,0,0.271814199979417,0.271814199979417,1.057086100045126,False,far-rnd0,13,6,3,3.75,1,up,8,0
77,3,True,1.1404815999558195,33.0,100.0,800.0,5,True,2,up,0.16666666666666666,36,0.09587580000516027,0.6314115000423044,0.7272873000474647,2.7138299999642186,False,far-080,13,9,6,5.625,1,up,8,1
78,1,True,1.793984400050249,33.0,50.0,100.0,0,True,1,up,0.16666666666666666,34,0,0.573782299994491,0.573782299994491,0.7561677999910899,False,far-rnd1,13,4,2,2.5,2,up,2,0
79,2,True,1.443784900009632,33.0,100.0,800.0,5,True,2,up,0.16666666666666666,36,0.09178999997675419,0.6194318000343628,0.711221800011117,0.5083549999981187,True,far-080,14,10,7,6.25,1,up,8,1
80,4,True,0.9378808000474237,33.0,100.0,800.0,10,True,2,down,0.16666666666666666,48,0.17913350003072992,0.83332320000045,1.01245670003118,2.1676982999779284,True,far-160,14,4,3,2.5,1,down,4,0
81,2,True,0.9850778999971226,33.0,33.0,100.0,0,False,0,up,0.16666666666666666,16,0,0.2737658999976702,0.2737658999976702,2.9825551999965683,False,far-rnd0,14,7,3,4.375,1,up,8,0
82,1,True,1.1090517999837175,33.0,50.0,100.0,0,True,1,up,0.16666666666666666,34,0,0.5698096000123769,0.5698096000123769,0.6382233999902382,True,far-rnd1,14,5,3,3.125,2,up,2,0
83,3,True,1.2836335999891162,33.0,100.0,800.0,0,True,2,up,0.16666666666666666,18,0,0.32982849999098107,0.32982849999098107,1.1514996999758296,False,far-000,14,3,1,1.875,2,up,2,0
84,2,True,0.8117740000016056,33.0,800.0,100.0,0,True,3,up,0.16666666666666666,36,0,0.6073180999956094,0.6073180999956094,0.5815228000283241,False,far-rnd3,14,1,0,0.625,1,up,8,0
85,2,True,1.146391100017354,33.0,33.0,100.0,0,False,0,up,0.16666666666666666,24,0,0.43994710000697523,0.43994710000697523,0.49845779995666817,True,far-rnd0,15,1,1,0.625,1,up,8,0
86,2,True,1.0017744000069797,33.0,50.0,100.0,0,True,1,up,0.16666666666666666,34,0,0.5794800000148825,0.5794800000148825,0.7820057999924757,False,far-rnd1,15,6,3,3.75,2,up,2,0
87,2,True,1.005959200032521,33.0,100.0,800.0,0,True,2,up,0.16666666666666666,18,0,0.3245380999869667,0.3245380999869667,0.8132548000430688,False,far-000,15,4,1,2.5,2,up,2,0
88,1,True,1.329145800031256,33.0,100.0,800.0,10,True,2,down,0.16666666666666666,48,0.17443610000191256,0.8073207999696024,0.9817568999715149,0.3942951000062749,True,far-160,15,5,4,3.125,1,down,4,0
89,3,True,1.4181527000037022,33.0,800.0,100.0,0,True,3,up,0.16666666666666666,36,0,0.6170151999685913,0.6170151999685913,2.813676600053441,True,far-rnd3,15,2,1,1.25,1,up,8,0
90,1,True,1.5948570999898948,33.0,100.0,800.0,5,True,2,up,0.16666666666666666,36,0.08905020001111552,0.6258605999755673,0.7149107999866828,0.4883894000086002,True,far-080,15,11,8,6.875,1,up,8,1
91,2,True,0.9039365000207908,33.0,50.0,100.0,0,True,1,up,0.16666666666666666,34,0,0.5736716999672353,0.5736716999672353,0.5599978999816813,True,far-rnd1,16,7,4,4.375,2,up,2,0
92,1,True,3.2631936999969184,33.0,100.0,800.0,10,True,2,down,0.16666666666666666,48,0.17271359998267144,0.8232975999708287,0.9960111999535002,0.7129530999809504,True,far-160,16,6,5,3.75,1,down,4,0
93,3,True,0.8405441999784671,33.0,33.0,100.0,0,False,0,up,0.16666666666666666,24,0,0.41020310000749305,0.41020310000749305,0.36819870001636446,True,far-rnd0,16,2,2,1.25,1,up,8,0
94,1,True,1.4334142000298016,33.0,800.0,100.0,0,True,3,up,0.16666666666666666,36,0,0.6033784000319429,0.6033784000319429,0.9840612999978475,True,far-rnd3,16,3,2,1.875,1,up,8,0
95,4,True,0.9699877999955788,33.0,100.0,800.0,0,True,2,up,0.16666666666666666,18,0,0.3322823999915272,0.3322823999915272,0.7509342000121251,True,far-000,16,5,2,3.125,2,up,2,0
96,2,True,0.8804540000273846,33.0,100.0,800.0,5,True,2,down,0.16666666666666666,34,0.08987060002982616,0.5925745000131428,0.682445100042969,0.5218469999963418,True,far-080,16,1,1,0.625,1,down,2,0
97,3,True,1.1235625999979675,33.0,100.0,800.0,10,True,2,down,0.16666666666666666,44,0.17209559999173507,0.7606930999900214,0.9327886999817565,0.12142029998358339,False,far-160,17,1,0,0.625,1,down,4,0
98,3,True,1.6561336000449955,33.0,50.0,100.0,0,True,1,up,0.16666666666666666,34,0,0.5853808999527246,0.5853808999527246,0.3724923999980092,True,far-rnd1,17,8,5,5.0,2,up,2,0
99,2,True,1.0210612999508157,33.0,33.0,100.0,0,False,0,up,0.16666666666666666,24,0,0.40395609999541193,0.40395609999541193,0.4445998000446707,True,far-rnd0,17,3,3,1.875,1,up,8,0
100,1,True,1.15325929998653,33.0,100.0,800.0,0,True,2,up,0.16666666666666666,18,0,0.32125679997261614,0.32125679997261614,0.9788386000436731,False,far-000,17,6,2,3.75,2,up,2,0
101,1,True,1.3461736000026576,33.0,800.0,100.0,0,True,3,up,0.16666666666666666,36,0,0.604243400041014,0.604243400041014,0.9870749000110663,False,far-rnd3,17,4,2,2.5,1,up,8,0
102,1,True,1.156914399995003,33.0,100.0,800.0,5,True,2,down,0.16666666666666666,34,0.09442340000532568,0.5878421999514103,0.682265599956736,0.4453205000027083,True,far-080,17,2,2,1.25,2,down,2,0
103,2,True,1.8904019999899901,33.0,33.0,100.0,0,False,0,down,0.16666666666666666,20,0,0.33712420001393184,0.33712420001393184,0.46068110002670437,True,far-rnd0,18,1,1,0.625,1,down,4,0
104,1,True,1.4160429000039585,33.0,50.0,100.0,0,True,1,up,0.16666666666666666,34,0,0.5728412999887951,0.5728412999887951,0.36829320003744215,True,far-rnd1,18,9,6,5.625,2,up,2,1
105,2,True,1.8469963999814354,33.0,800.0,100.0,0,True,3,up,0.16666666666666666,36,0,0.6052048000274226,0.6052048000274226,0.8118531000218354,True,far-rnd3,18,5,3,3.125,1,up,8,0
106,2,True,1.1178162000142038,33.0,100.0,800.0,10,True,2,down,0.16666666666666666,44,0.1715087000047788,0.7567070999648422,0.928215799969621,0.5961466999724507,False,far-160,18,2,0,1.25,1,down,4,0
107,2,True,0.7850432000122964,33.0,100.0,800.0,0,True,2,up,0.16666666666666666,18,0,0.32636940001975745,0.32636940001975745,1.592086200020276,False,far-000,18,7,2,4.375,2,up,2,0
108,1,True,1.475740100024268,33.0,100.0,800.0,5,True,2,down,0.16666666666666666,34,0.09242130001075566,0.5950526000233367,0.6874739000340924,0.602901500009466,False,far-080,18,3,2,1.875,2,down,2,0
109,2,True,0.8171124999644235,33.0,100.0,800.0,0,True,2,up,0.16666666666666666,20,0,0.35320029995637015,0.35320029995637015,0.7464595000492409,False,far-000,19,1,0,0.625,2,up,2,0
110,2,True,1.2078664999571629,33.0,33.0,100.0,0,False,0,down,0.16666666666666666,20,0,0.3399544999701902,0.3399544999701902,1.0645664999610744,False,far-rnd0,19,2,1,1.25,1,down,4,0
111,2,True,0.977453300030902,33.0,800.0,100.0,0,True,3,up,0.16666666666666666,36,0,0.6077304999926127,0.6077304999926127,0.8790199999930337,True,far-rnd3,19,6,4,3.75,1,up,8,0
112,1,True,1.2599728999775834,33.0,100.0,800.0,5,True,2,down,0.16666666666666666,34,0.0887170999776572,0.7115230000345036,0.8002401000121608,0.41004420001991093,True,far-080,19,4,3,2.5,2,down,2,0
113,1,True,1.4689575000084005,33.0,100.0,800.0,10,True,2,up,0.16666666666666666,46,0.1753762000007555,0.7864378000376746,0.9618140000384301,0.3666738999891095,True,far-160,19,1,1,0.625,1,up,2,0
114,1,True,0.9931410000426695,33.0,50.0,100.0,0,True,1,up,0.16666666666666666,34,0,0.7054204000160098,0.7054204000160098,0.8568100999691524,False,far-rnd1,19,10,6,6.25,2,up,2,1
115,2,True,1.0404105000197887,33.0,100.0,800.0,5,True,2,down,0.16666666666666666,34,0.0992481000139378,0.6026990999816917,0.7019471999956295,0.49719319998985156,True,far-080,20,5,4,3.125,2,down,2,0
116,2,True,1.6114328000112437,33.0,50.0,100.0,0,True,1,up,0.16666666666666666,34,0,0.5732875000103377,0.5732875000103377,0.3213046999881044,True,far-rnd1,20,11,7,6.875,2,up,2,1
117,3,True,1.0796742999809794,33.0,33.0,100.0,0,False,0,down,0.16666666666666666,20,0,0.34006570000201464,0.34006570000201464,0.45465680002234876,True,far-rnd0,20,3,2,1.875,1,down,4,0
118,1,True,1.3654474999639206,33.0,800.0,100.0,0,True,3,up,0.16666666666666666,36,0,0.6039799999562092,0.6039799999562092,1.3896398999495432,False,far-rnd3,20,7,4,4.375,1,up,8,0
119,2,True,1.0393153000040911,33.0,100.0,800.0,0,True,2,up,0.16666666666666666,20,0,0.3650789000093937,0.3650789000093937,1.2831444999901578,False,far-000,20,2,0,1.25,2,up,2,0
120,2,True,2.008252099971287,33.0,100.0,800.0,10,True,2,up,0.16666666666666666,46,0.17027820000657812,0.7841955999610946,0.9544737999676727,1.3435747000039555,False,far-160,20,2,1,1.25,2,up,2,0
121,1,True,1.7376306999940425,33.0,100.0,800.0,5,True,2,down,0.16666666666666666,34,0.09065470000496134,0.5907317000092007,0.6813864000141621,0.6818633999791928,True,far-080,21,6,5,3.75,2,down,2,0
122,2,True,2.448361999995541,33.0,800.0,100.0,0,True,3,up,0.16666666666666666,36,0,0.6075360999675468,0.6075360999675468,1.215633399959188,False,far-rnd3,21,8,4,5.0,1,up,8,0
123,2,True,0.9621144999982789,33.0,100.0,800.0,10,True,2,up,0.16666666666666666,46,0.17380930000217631,0.7884278999990784,0.9622372000012547,0.3003335999674164,True,far-160,21,3,2,1.875,2,up,2,0
124,2,True,0.7775100000435486,33.0,100.0,800.0,0,True,2,up,0.16666666666666666,20,0,0.3534902000101283,0.3534902000101283,0.8512469000415877,True,far-000,21,3,1,1.875,2,up,2,0
125,3,True,0.8849069999996573,33.0,50.0,100.0,0,True,1,up,0.16666666666666666,34,0,0.5797853000112809,0.5797853000112809,0.335463700001128,True,far-rnd1,21,12,8,7.5,2,up,2,1
126,1,True,1.1513114999979734,33.0,33.0,100.0,0,False,0,down,0.16666666666666666,20,0,0.3346747999894433,0.3346747999894433,0.4964056000462733,True,far-rnd0,21,4,3,2.5,1,down,4,0
127,3,True,0.9382684000302106,33.0,33.0,100.0,0,False,0,down,0.16666666666666666,20,0,0.3404471999965608,0.3404471999965608,0.5096703000017442,True,far-rnd0,22,5,4,3.125,1,down,4,0
128,3,True,1.093029900046531,33.0,50.0,100.0,0,True,1,up,0.16666666666666666,34,0,0.5780148999765515,0.5780148999765515,0.2501653000363149,True,far-rnd1,22,13,9,8.125,2,up,2,1
129,1,True,0.8038796000182629,33.0,100.0,800.0,10,True,2,up,0.16666666666666666,46,0.17095189995598048,0.7866004999959841,0.9575523999519646,0.3679091000230983,True,far-160,22,4,3,2.5,2,up,2,0
130,2,True,0.6825882000266574,33.0,800.0,100.0,0,True,3,up,0.16666666666666666,36,0,0.6018763000029139,0.6018763000029139,0.5862458000192419,False,far-rnd3,22,9,4,5.625,1,up,8,1
131,1,True,1.2166057000285946,33.0,100.0,800.0,5,True,2,down,0.16666666666666666,34,0.09333090001018718,0.586208600027021,0.6795395000372082,0.604334200033918,False,far-080,22,7,5,4.375,2,down,2,0
132,1,True,1.1763404999510385,33.0,100.0,800.0,0,True,2,up,0.16666666666666666,20,0,0.35284790000878274,0.35284790000878274,1.4444572000065818,False,far-000,22,4,1,2.5,2,up,2,0
133,1,True,2.090405599970836,33.0,100.0,800.0,0,True,2,up,0.16666666666666666,20,0,0.3531024000258185,0.3531024000258185,0.8949757000082172,True,far-000,23,5,2,3.125,2,up,2,0
134,2,True,0.8422573999851011,33.0,100.0,800.0,5,True,2,down,0.16666666666666666,34,0.09466850000899285,0.5968442999874242,0.691512799996417,0.3187292000511661,True,far-080,23,8,6,5.0,2,down,2,0
135,2,True,0.6470990999951027,33.0,50.0,100.0,0,True,1,up,0.16666666666666666,34,0,0.5742125000106171,0.5742125000106171,0.41817090002587065,True,far-rnd1,23,14,10,8.75,2,up,2,1
136,1,True,1.0867557000019588,33.0,100.0,800.0,10,True,2,up,0.16666666666666666,46,0.168052599998191,0.776713099970948,0.944765699969139,0.887983999971766,False,far-160,23,5,3,3.125,2,up,2,0
137,1,True,1.2275616000406444,33.0,800.0,100.0,0,True,3,up,0.16666666666666666,44,0,0.7334472999791615,0.7334472999791615,0.769367599976249,False,far-rnd3,23,1,0,0.625,1,up,8,0
138,2,True,0.9171550999744795,33.0,33.0,100.0,0,False,0,down,0.16666666666666666,20,0,0.3421153000090271,0.3421153000090271,0.4002654000069015,True,far-rnd0,23,6,5,3.75,1,down,4,0
139,2,True,0.6813624000060372,33.0,800.0,100.0,0,True,3,up,0.16666666666666666,44,0,0.7363354000262916,0.7363354000262916,1.6456914999871515,False,far-rnd3,24,2,0,1.25,1,up,8,0
140,4,True,1.43652279995149,33.0,100.0,800.0,10,True,2,up,0.16666666666666666,46,0.18527949997223914,0.8049282000283711,0.9902077000006102,0.310697800014168,True,far-160,24,6,4,3.75,2,up,2,0
141,3,True,1.0217661000206135,33.0,50.0,100.0,0,True,1,up,0.16666666666666666,34,0,0.5823661999893375,0.5823661999893375,0.36413900001207367,True,far-rnd1,24,15,11,9.375,2,up,2,1
142,2,True,1.220527600031346,33.0,100.0,800.0,0,True,2,up,0.16666666666666666,20,0,0.3617866999702528,0.3617866999702528,0.905130899976939,False,far-000,24,6,2,3.75,2,up,2,0
143,1,True,1.4911689000437036,33.0,33.0,100.0,0,False,0,down,0.16666666666666666,16,0,0.273547199962195,0.273547199962195,0.6835689000436105,True,far-rnd0,24,1,1,0.625,1,down,4,0
144,1,True,0.8393107999581844,33.0,100.0,800.0,5,True,2,down,0.16666666666666666,34,0.08618390001356602,0.5959825000027195,0.6821664000162855,0.7973898000200279,False,far-080,24,9,6,5.625,2,down,2,1
145,3,True,0.7788530000252649,33.0,50.0,100.0,0,True,1,up,0.16666666666666666,34,0,0.5848368000006303,0.5848368000006303,0.30616470001405105,True,far-rnd1,25,16,12,10.0,2,up,2,1
146,1,True,1.4746081000193954,33.0,100.0,800.0,10,True,2,up,0.16666666666666666,46,0.1711041000089608,0.7858248999691568,0.9569289999781176,0.21582650003256276,True,far-160,25,7,5,4.375,2,up,2,0
147,2,True,0.7984051999519579,33.0,100.0,800.0,0,True,2,up,0.16666666666666666,20,0,0.35820229997625574,0.35820229997625574,0.8843297999701463,True,far-000,25,7,3,4.375,2,up,2,0
148,1,True,1.0694494000053965,33.0,33.0,100.0,0,False,0,down,0.16666666666666666,16,0,0.2666523000225425,0.2666523000225425,0.4640048000146635,True,far-rnd0,25,2,2,1.25,1,down,4,0
149,4,True,1.220282500027679,33.0,100.0,800.0,5,True,2,down,0.16666666666666666,34,0.10479159996611997,0.6197974000242539,0.7245889999903738,0.7047801000298932,False,far-080,25,10,6,6.25,2,down,2,1
150,2,True,0.8467943000141531,33.0,800.0,100.0,0,True,3,up,0.16666666666666666,60,0,0.9926316000055522,0.9926316000055522,0.37758320005377755,True,far-rnd3,25,1,1,0.625,1,up,16,0
151,2,True,0.8813541000126861,33.0,50.0,100.0,0,True,1,up,0.16666666666666666,34,0,0.5776059000054374,0.5776059000054374,0.4388289999915287,True,far-rnd1,26,17,13,10.625,2,up,2,2
152,3,True,1.1904564999858849,33.0,100.0,800.0,10,True,2,up,0.16666666666666666,46,0.17992409999715164,0.8016368999960832,0.9815609999932349,0.1696399999782443,True,far-160,26,8,6,5.0,2,up,2,0
153,2,True,0.8126691000070423,33.0,33.0,100.0,0,False,0,down,0.16666666666666666,16,0,0.2793854000046849,0.2793854000046849,0.5562777000013739,True,far-rnd0,26,3,3,1.875,1,down,4,0
154,2,True,0.8578565000207163,33.0,800.0,100.0,0,True,3,up,0.16666666666666666,60,0,0.9880976999993436,0.9880976999993436,0.24085060000652447,True,far-rnd3,26,2,2,1.25,1.0,up,16,0
155,3,True,1.6072570999967866,33.0,100.0,800.0,5,True,2,down,0.16666666666666666,34,0.10098940000170842,0.6104708999628201,0.7114602999645285,0.4747920999652706,True,far-080,26,11,7,6.875,2,down,2,1
156,4,True,0.8265923000290059,33.0,100.0,800.0,0,True,2,up,0.16666666666666666,20,0,0.3708579000085592,0.3708579000085592,0.6886211999808438,True,far-000,26,8,4,5.0,2,up,2,0
157,2,True,1.2100555000361055,33.0,100.0,800.0,5,True,2,down,0.16666666666666666,34,0.09111539996229112,0.6036686000297777,0.6947839999920689,0.45036610000533983,False,far-080,27,12,7,7.5,2,down,2,1
158,1,True,1.1207476999843493,33.0,100.0,800.0,10,True,2,up,0.16666666666666666,46,0.1704236000077799,0.7895290000014938,0.9599526000092737,0.3802321999683045,True,far-160,27,9,7,5.625,2,up,2,1
159,4,True,1.421329600038007,33.0,800.0,100.0,0,True,3,up,0.16666666666666666,60,0,0.99777679995168,0.99777679995168,0.439589099958539,True,far-rnd3,27,3,3,1.875,1.0,up,16,0
160,2,True,0.7191189000150189,33.0,33.0,100.0,0,False,0,down,0.16666666666666666,12,0,0.21036949998233467,0.21036949998233467,1.374591599975247,False,far-rnd0,27,1,0,0.625,1,down,4,0
161,1,True,1.228971999953501,33.0,100.0,800.0,0,True,2,up,0.16666666666666666,20,0,0.3507260999758728,0.3507260999758728,0.8185176999541,False,far-000,27,9,4,5.625,2,up,2,1
162,1,True,2.4672952000400983,33.0,100.0,800.0,0,True,2,up,0.16666666666666666,20,0,0.3491777000017464,0.3491777000017464,1.1053410000167787,False,far-000,28,10,4,6.25,2,up,2,1
163,2,True,0.8956179000088014,33.0,33.0,100.0,0,False,0,down,0.16666666666666666,12,0,0.207157599972561,0.207157599972561,0.7232975999941118,False,far-rnd0,28,2,0,1.25,1,down,4,0
164,1,True,1.0028886999934912,33.0,100.0,800.0,5,True,2,down,0.16666666666666666,34,0.0875753000145778,0.5947419999865815,0.6823173000011593,0.8490769999916665,False,far-080,28,13,7,8.125,2,down,2,1
165,3,True,0.7245788999716751,33.0,100.0,800.0,10,True,2,up,0.16666666666666666,46,0.18677669996395707,0.7850113000022247,0.9717879999661818,0.21557890000985935,True,far-160,28,10,8,6.25,2,up,2,1
166,3,True,0.7405647999839857,33.0,800.0,100.0,0,True,3,down,0.16666666666666666,52,0,0.8702561999671161,0.8702561999671161,1.1288418999756686,False,far-rnd3,28,1,0,0.625,0.5,down,8,0
167,2,True,0.7194145999965258,33.0,100.0,800.0,5,True,2,down,0.16666666666666666,34,0.08815880003385246,0.6016303999931552,0.6897892000270076,0.6976766999578103,True,far-080,29,14,8,8.75,2,down,2,1
168,1,True,1.3568304000073113,33.0,100.0,800.0,0,True,2,up,0.16666666666666666,21,0,0.37299720000009984,0.37299720000009984,0.8791618999675848,False,far-000,29,1,0,0.625,2,up,1,0
169,2,True,1.0176414999878034,33.0,33.0,100.0,0,False,0,up,0.16666666666666666,14,0,0.246318599965889,0.246318599965889,0.7229103000136092,True,far-rnd0,29,1,1,0.625,1,up,2,0
170,3,True,0.8466033000149764,33.0,100.0,800.0,10,True,2,up,0.16666666666666666,46,0.17466499999864027,0.7882169000222348,0.962881900020875,0.21317539998563007,True,far-160,29,11,9,6.875,2,up,2,1
171,4,True,0.9289044999750331,33.0,800.0,100.0,0,True,3,down,0.16666666666666666,52,0,0.8789902999997139,0.8789902999997139,0.6487785000354052,False,far-rnd3,29,2,0,1.25,1,down,8,0
172,1,True,1.1002943000057712,33.0,33.0,100.0,0,False,0,up,0.16666666666666666,14,0,0.2360869999974966,0.2360869999974966,0.8896064999862574,False,far-rnd0,30,2,1,1.25,2,up,2,0
173,3,True,0.8870806000195444,33.0,100.0,800.0,10,True,2,down,0.16666666666666666,45,0.17706519999774173,0.7806382999988273,0.957703499996569,1.409119300020393,False,far-160,30,1,0,0.625,2,down,1,0
174,3,True,0.8289893000037409,33.0,800.0,100.0,0,True,3,up,0.16666666666666666,56,0,0.9583990999963135,0.9583990999963135,0.1990084999706596,True,far-rnd3,30,1,1,0.625,1,up,4,0
175,1,True,1.2771054999902844,33.0,100.0,800.0,5,True,2,down,0.16666666666666666,34,0.09430539997993037,0.5939053000183776,0.688210699998308,0.5340264000114985,True,far-080,30,15,9,9.375,2,down,2,1
176,2,True,1.026424899988342,33.0,100.0,800.0,0,True,2,up,0.16666666666666666,21,0,0.3722249999991618,0.3722249999991618,0.6693041999824345,False,far-000,30,2,0,1.25,2,up,1,0
177,1,True,1.4716739000286907,33.0,800.0,100.0,0,True,3,up,0.16666666666666666,56,0,0.9186451000277884,0.9186451000277884,0.5771868000156246,False,far-rnd3,31,2,1,1.25,1,up,4,0
178,2,True,0.8371539999498054,33.0,33.0,100.0,0,False,0,up,0.16666666666666666,14,0,0.2427013999549672,0.2427013999549672,0.9599997999612242,True,far-rnd0,31,3,2,1.875,2,up,2,0
179,1,True,0.9395817000186071,33.0,100.0,800.0,5,True,2,down,0.16666666666666666,34,0.09067990002222359,0.5908017000183463,0.6814816000405699,0.5117011000402272,True,far-080,31,16,10,10.0,2,down,2,1
180,2,True,0.9547123000374995,33.0,100.0,800.0,10,True,2,down,0.16666666666666666,45,0.1797229999792762,0.764074900012929,0.9437978999922052,0.19786980003118515,True,far-160,31,2,1,1.25,3,down,1,0
181,3,True,1.7484380000387318,33.0,100.0,800.0,0,True,2,up,0.16666666666666666,21,0,0.372578100010287,0.372578100010287,0.711581900017336,True,far-000,31,3,1,1.875,2,up,1,0
182,4,True,0.8552808999666013,33.0,100.0,800.0,10,True,2,down,0.16666666666666666,45,0.17902039998443797,0.7763040999998339,0.9553244999842718,0.10234639997361228,False,far-160,32,3,1,1.875,3,down,1,0
183,2,True,2.792497700022068,33.0,100.0,800.0,5,True,2,down,0.16666666666666666,34,0.09076759999152273,0.6026813999633305,0.6934489999548532,0.6174127999693155,True,far-080,32,17,11,10.625,2,down,2,2
184,1,True,1.252474200038705,33.0,100.0,800.0,0,True,2,up,0.16666666666666666,21,0,0.3738739999826066,0.3738739999826066,1.5685217999853194,False,far-000,32,4,1,2.5,2,up,1,0
185,1,True,1.3111357999732718,33.0,33.0,100.0,0,False,0,up,0.16666666666666666,14,0,0.23670520004816353,0.23670520004816353,1.1998857000144199,True,far-rnd0,32,4,3,2.5,2,up,2,0
186,2,True,0.7340506000327878,33.0,800.0,100.0,0,True,3,up,0.16666666666666666,56,0,0.9277740999823436,0.9277740999823436,0.800898999965284,False,far-rnd3,32,3,1,1.875,1,up,4,0
187,3,True,0.8226380000123754,33.0,100.0,800.0,10,True,2,down,0.16666666666666666,45,0.1709388999734074,0.7773156000184827,0.94825449999189,0.3777772000175901,True,far-160,33,4,2,2.5,3,down,1,0
188,1,True,1.0478183000232093,33.0,100.0,800.0,0,True,2,up,0.16666666666666666,21,0,0.37444839999079704,0.37444839999079704,1.0675291999941692,False,far-000,33,5,1,3.125,2,up,1,0
189,1,True,1.1601784999947995,33.0,800.0,100.0,0,True,3,up,0.16666666666666666,56,0,0.9231952999834903,0.9231952999834903,0.4851073999889195,True,far-rnd3,33,4,2,2.5,1,up,4,0
190,2,True,0.928582499967888,33.0,33.0,100.0,0,False,0,up,0.16666666666666666,14,0,0.24020759999984875,0.24020759999984875,0.5744049999630079,True,far-rnd0,33,5,4,3.125,2,up,2,0
191,1,True,1.0182424999657087,33.0,100.0,800.0,5,True,2,down,0.16666666666666666,34,0.08906229998683557,0.5966855000006035,0.6857477999874391,0.3332610000506975,True,far-080,33,18,12,11.25,2,down,2,2
192,2,True,0.9825483000022359,33.0,33.0,100.0,0,False,0,up,0.16666666666666666,14,0,0.24377990001812577,0.24377990001812577,0.6435685000033118,False,far-rnd0,34,6,4,3.75,2,up,2,0
193,2,True,1.6204405999742448,33.0,800.0,100.0,0,True,3,up,0.16666666666666666,56,0,1.0357947000302374,1.0357947000302374,0.2855802000267431,True,far-rnd3,34,5,3,3.125,1,up,4,0
194,1,True,1.3305923999869265,33.0,100.0,800.0,10,True,2,down,0.16666666666666666,45,0.17002590000629425,0.7607086999923922,0.9307345999986865,0.29264810000313446,True,far-160,34,5,3,3.125,3,down,1,0
195,1,True,1.3467684999923222,33.0,100.0,800.0,5,True,2,down,0.16666666666666666,34,0.08723400003509596,0.6479449000325985,0.7351789000676945,0.4073029999854043,True,far-080,34,19,13,11.875,2,down,2,2
196,4,True,1.0490948000224307,33.0,100.0,800.0,0,True,2,up,0.16666666666666666,23,0,0.42633799999020994,0.42633799999020994,1.5309337000362575,False,far-000,34,1,0,0.625,2,up,2,0
197,3,True,1.1996898999786936,33.0,100.0,800.0,0,True,2,up,0.16666666666666666,23,0,0.4190639000153169,0.4190639000153169,0.7277813000255264,True,far-000,35,2,1,1.25,2,up,2,0
198,3,True,1.8306774999946356,33.0,800.0,100.0,0,True,3,up,0.16666666666666666,56,0,0.9373721000156365,0.9373721000156365,0.26405689999228343,True,far-rnd3,35,6,4,3.75,1,up,4,0
199,1,True,1.140096099989023,33.0,33.0,100.0,0,False,0,up,0.16666666666666666,14,0,0.23349220003001392,0.23349220003001392,0.7072372999973595,False,far-rnd0,35,7,4,4.375,2,up,2,0
200,1,True,1.329401199996937,33.0,100.0,800.0,10,True,2,down,0.16666666666666666,45,0.17266519996337593,0.759928299987223,0.9325934999505989,0.8768947999924421,True,far-160,35,6,4,3.75,3,down,1,0
201,1,True,1.4220696999691427,33.0,100.0,800.0,5,True,2,down,0.16666666666666666,34,0.09191169997211546,0.586861299991142,0.6787729999632575,0.5521745000150986,True,far-080,35,20,14,12.5,2,down,2,2
202,2,True,1.6060101999901235,33.0,100.0,800.0,10,True,2,down,0.16666666666666666,45,0.16903079999610782,0.7629108999972232,0.931941699993331,0.452507300011348,True,far-160,36,7,5,4.375,3,down,1,0
203,2,True,1.4830616999533959,33.0,100.0,800.0,0,True,2,up,0.16666666666666666,23,0,0.4111051000072621,0.4111051000072621,0.9492609999724664,False,far-000,36,3,1,1.875,2,up,2,0
204,1,True,1.0613066999940202,33.0,33.0,100.0,0,False,0,up,0.16666666666666666,14,0,0.23884040000848472,0.23884040000848472,1.028909399989061,False,far-rnd0,36,8,4,5.0,2,up,2,0
205,2,True,0.9535307000041939,33.0,800.0,100.0,0,True,3,up,0.16666666666666666,56,0,0.9290548000135459,0.9290548000135459,0.6858494999469258,False,far-rnd3,36,7,4,4.375,1,up,4,0
206,3,True,1.6588391999830492,33.0,100.0,800.0,5,True,2,down,0.16666666666666666,34,0.09905309998430312,0.5941858000005595,0.6932388999848627,0.2822736999951303,True,far-080,36,21,15,13.125,2,down,2,2
207,3,True,0.7560692999977618,33.0,33.0,100.0,0,False,0,up,0.16666666666666666,14,0,0.2512832999927923,0.2512832999927923,0.7723470999626443,True,far-rnd0,37,9,5,5.625,2,up,2,1
208,1,True,2.158215300005395,33.0,800.0,100.0,0,True,3,up,0.16666666666666666,56,0,0.9254590000491589,0.9254590000491589,0.2570733000175096,True,far-rnd3,37,8,5,5.0,1,up,4,0
209,3,True,1.947793500032276,33.0,100.0,800.0,10,True,2,down,0.16666666666666666,45,0.17970059998333454,0.7712015000288375,0.950902100012172,0.5529911000048742,True,far-160,37,8,6,5.0,3,down,1,0
210,2,True,0.9409299999824725,33.0,100.0,800.0,5,True,2,down,0.16666666666666666,34,0.09364059998188168,0.5895660999813117,0.6832066999631934,0.6128391000092961,True,far-080,37,22,16,13.75,2,down,2,2
211,4,True,1.6533335000276566,33.0,100.0,800.0,0,True,2,up,0.16666666666666666,23,0,0.4063785999896936,0.4063785999896936,1.8722735000192188,False,far-000,37,4,1,2.5,2,up,2,0
212,2,True,1.7726677000173368,33.0,800.0,100.0,0,True,3,up,0.16666666666666666,56,0,0.9289978999877349,0.9289978999877349,0.6178393999580294,True,far-rnd3,38,9,6,5.625,1,up,4,1
213,2,True,0.9891723000328057,33.0,33.0,100.0,0,False,0,up,0.16666666666666666,14,0,0.246367999992799,0.246367999992799,1.2573961000307463,False,far-rnd0,38,10,5,6.25,2,up,2,1
214,2,True,1.3674534000456333,33.0,100.0,800.0,5,True,2,down,0.16666666666666666,33,0.0938120000064373,0.5859224000014365,0.6797344000078738,0.4842918000067584,True,far-080,38,1,1,0.625,2,down,1,0
215,1,True,2.230227099964395,33.0,100.0,800.0,0,True,2,up,0.16666666666666666,23,0,0.39966989995446056,0.39966989995446056,0.9856789999757893,True,far-000,38,5,2,3.125,2,up,2,0
216,3,True,2.1111282000201754,33.0,800.0,100.0,0,True,3,up,0.16666666666666666,56,0,0.9282733000000007,0.9282733000000007,0.26130359998205677,False,far-rnd3,39,10,6,6.25,1,up,4,1
217,3,True,0.9246249999850988,33.0,100.0,800.0,5,True,2,down,0.16666666666666666,33,0.0976220999727957,0.5795420000213198,0.6771640999941155,0.613236200006213,True,far-080,39,2,2,1.25,3,down,1,0
218,1,True,1.2401169000077061,33.0,33.0,100.0,0,False,0,up,0.16666666666666666,14,0,0.23630079999566078,0.23630079999566078,0.6684100999846123,False,far-rnd0,39,11,5,6.875,2,up,2,1
219,2,True,0.8286950999754481,33.0,100.0,800.0,0,True,2,up,0.16666666666666666,23,0,0.4084533000132069,0.4084533000132069,0.8559330999851227,True,far-000,39,6,3,3.75,2,up,2,0
220,2,True,0.8871706000063568,33.0,800.0,100.0,0,True,3,up,0.16666666666666666,56,0,0.9320480999886058,0.9320480999886058,0.48316559998784214,True,far-rnd3,40,11,7,6.875,1,up,4,1
221,3,True,0.903015099989716,33.0,100.0,800.0,0,True,2,up,0.16666666666666666,23,0,0.40823380002984777,0.40823380002984777,1.0903797000064515,False,far-000,40,7,3,4.375,2,up,2,0
222,1,True,1.0162635000306182,33.0,33.0,100.0,0,False,0,up,0.16666666666666666,14,0,0.2396318999817595,0.2396318999817595,1.23518239997793,True,far-rnd0,40,12,6,7.5,2,up,2,1
223,2,True,1.5922527000075206,33.0,100.0,800.0,5,True,2,down,0.16666666666666666,33,0.20771879999665543,0.5899273999966681,0.7976461999933235,1.1461241000215523,False,far-080,40,3,2,1.875,3,down,1,0
224,1,True,0.9654664000263438,33.0,800.0,100.0,0,True,3,up,0.16666666666666666,56,0,0.9270733000012115,0.9270733000012115,1.3312188999843784,False,far-rnd3,41,12,7,7.5,1,up,4,1
225,4,True,0.8143260999931954,33.0,100.0,800.0,5,True,2,down,0.16666666666666666,33,0.09469320002244785,0.5964053000207059,0.6910985000431538,0.6103812999790534,True,far-080,41,4,3,2.5,3,down,1,0
226,1,True,1.4668333000154234,33.0,100.0,800.0,0,True,2,up,0.16666666666666666,23,0,0.4007512999814935,0.4007512999814935,1.2628764000255615,False,far-000,41,8,3,5.0,2,up,2,0
227,2,True,0.743439199985005,33.0,33.0,100.0,0,False,0,up,0.16666666666666666,14,0,0.243442100007087,0.243442100007087,0.8625819000299089,False,far-rnd0,41,13,6,8.125,2,up,2,1
228,2,True,0.8980471999966539,33.0,100.0,800.0,5,True,2,down,0.16666666666666666,33,0.0965849999920465,0.5745640000095591,0.6711490000016056,0.900704899977427,False,far-080,42,5,3,3.125,3,down,1,0
229,2,True,1.0553697000141256,33.0,33.0,100.0,0,False,0,up,0.16666666666666666,15,0,0.2589779999689199,0.2589779999689199,0.6012238999828696,False,far-rnd0,42,1,0,0.625,2,up,1,0
230,3,True,1.1636124000069685,33.0,100.0,800.0,0,True,2,up,0.16666666666666666,23,0,0.40880179998930544,0.40880179998930544,0.6954101000446826,True,far-000,42,9,4,5.625,2,up,2,1
231,1,True,1.8666795000317506,33.0,800.0,100.0,0,True,3,up,0.16666666666666666,56,0,0.9209984000190161,0.9209984000190161,0.5916762999841012,True,far-rnd3,42,13,8,8.125,1,up,4,1
232,1,True,1.204890399996657,33.0,100.0,800.0,5,True,2,down,0.16666666666666666,33,0.08877149998443201,0.5706624000449665,0.6594339000293985,0.557813499995973,True,far-080,43,6,4,3.75,3,down,1,0
233,1,True,1.933214400021825,33.0,33.0,100.0,0,False,0,up,0.16666666666666666,15,0,0.25644039997132495,0.25644039997132495,0.8432614000048488,True,far-rnd0,43,2,1,1.25,2,up,1,0
234,4,True,3.1319873000029474,33.0,100.0,800.0,0,True,2,up,0.16666666666666666,23,0,0.41131830000085756,0.41131830000085756,0.774820999999065,True,far-000,43,10,5,6.25,2,up,2,1
235,1,True,1.2318960000411607,33.0,800.0,100.0,0,True,3,up,0.16666666666666666,56,0,0.9229810999822803,0.9229810999822803,1.5301040000049397,False,far-rnd3,43,14,8,8.75,1,up,4,1
236,2,True,0.8673675000318326,33.0,800.0,100.0,0,True,3,up,0.16666666666666666,56,0,0.9292679000063799,0.9292679000063799,0.31338599999435246,True,far-rnd3,44,15,9,9.375,1,up,4,1
237,4,True,1.323882800003048,33.0,100.0,800.0,0,True,2,up,0.16666666666666666,23,0,0.4175987999769859,0.4175987999769859,0.5740316999726929,False,far-000,44,11,5,6.875,2,up,2,1
238,1,True,1.4279112999793142,33.0,33.0,100.0,0,False,0,up,0.16666666666666666,15,0,0.2545057000243105,0.2545057000243105,0.6313711000257172,True,far-rnd0,44,3,2,1.875,2,up,1,0
239,1,True,1.7067604000330903,33.0,100.0,800.0,5,True,2,down,0.16666666666666666,33,0.08775150001747534,0.5740519000100903,0.6618034000275657,0.773432599962689,False,far-080,44,7,4,4.375,3,down,1,0
240,3,True,1.0952831000322476,33.0,33.0,100.0,0,False,0,up,0.16666666666666666,15,0,0.2622831000480801,0.2622831000480801,0.5039713999722153,True,far-rnd0,45,4,3,2.5,2,up,1,0
241,1,True,1.0608214000239968,33.0,800.0,100.0,0,True,3,up,0.16666666666666666,56,0,0.9296170999878086,0.9296170999878086,0.7583725999575108,True,far-rnd3,45,16,10,10.0,1,up,4,1
242,3,True,1.1127541000023484,33.0,100.0,800.0,5,True,2,down,0.16666666666666666,33,0.09454640001058578,0.5803028999944218,0.6748493000050075,0.46045840001897886,True,far-080,45,8,5,5.0,3,down,1,0
243,2,True,1.5045257000019774,33.0,100.0,800.0,0,True,2,up,0.16666666666666666,23,0,0.4014224000275135,0.4014224000275135,0.6491964000160806,True,far-000,45,12,6,7.5,2,up,2,1
244,2,True,1.3101266999728978,33.0,800.0,100.0,0,True,3,up,0.16666666666666666,56,0,0.9253139999927953,0.9253139999927953,0.390783500042744,True,far-rnd3,46,17,11,10.625,1,up,4,2
245,3,True,1.113191700016614,33.0,100.0,800.0,0,True,2,up,0.16666666666666666,23,0,0.40388389996951446,0.40388389996951446,0.785861800017301,False,far-000,46,13,6,8.125,2,up,2,1
246,4,True,0.9584944999660365,33.0,33.0,100.0,0,False,0,up,0.16666666666666666,15,0,0.2669328000047244,0.2669328000047244,0.47759760002372786,True,far-rnd0,46,5,4,3.125,2,up,1,0
247,2,True,0.9296164999832399,33.0,33.0,100.0,0,False,0,up,0.16666666666666666,15,0,0.2585783999529667,0.2585783999529667,0.4862004999886267,True,far-rnd0,47,6,5,3.75,2,up,1,0
248,1,True,0.904666599992197,33.0,800.0,100.0,0,True,3,up,0.16666666666666666,56,0,0.9191411000210792,0.9191411000210792,0.5919020000146702,True,far-rnd3,47,18,12,11.25,1,up,4,2
249,3,True,1.660501700011082,33.0,100.0,800.0,0,True,2,up,0.16666666666666666,25,0,0.44463069998892024,0.44463069998892024,0.8388145999633707,True,far-000,47,1,1,0.625,2,up,2,0
250,1,True,1.4771905000088736,33.0,100.0,800.0,0,True,2,up,0.16666666666666666,25,0,0.43456339999102056,0.43456339999102056,1.0635690999915823,False,far-000,48,2,1,1.25,2,up,2,0
251,2,True,1.680697500007227,33.0,33.0,100.0,0,False,0,up,0.16666666666666666,15,0,0.2626474000280723,0.2626474000280723,0.4856318000238389,True,far-rnd0,48,7,6,4.375,2,up,1,0
252,2,True,1.1666083000018261,33.0,800.0,100.0,0,True,3,up,0.16666666666666666,56,0,0.9239677999867126,0.9239677999867126,0.46142910001799464,True,far-rnd3,48,19,13,11.875,1,up,4,2
253,2,True,1.0408845999627374,33.0,800.0,100.0,0,True,3,down,0.16666666666666666,55,0,0.9150041000102647,0.9150041000102647,0.2809066000045277,True,far-rnd3,49,1,1,0.625,1,down,1,0
254,2,True,1.185740299988538,33.0,100.0,800.0,0,True,2,up,0.16666666666666666,25,0,0.4443668000167236,0.4443668000167236,0.6539874000009149,False,far-000,49,3,1,1.875,2,up,2,0
255,1,True,1.635722600040026,33.0,33.0,100.0,0,False,0,up,0.16666666666666666,15,0,0.2547539999941364,0.2547539999941364,0.5733321000006981,True,far-rnd0,49,8,7,5.0,2,up,1,0
256,1,True,1.3545756000094116,33.0,33.0,100.0,0,False,0,up,0.16666666666666666,15,0,0.2540117999888025,0.2540117999888025,0.46659649995854124,True,far-rnd0,50,9,8,5.625,2,up,1,1
257,1,True,1.5294235000037588,33.0,800.0,100.0,0,True,3,down,0.16666666666666666,55,0,0.9043774000019766,0.9043774000019766,0.788773600012064,True,far-rnd3,50,2,2,1.25,3,down,1,0
258,1,True,1.568081200006418,33.0,100.0,800.0,0,True,2,up,0.16666666666666666,25,0,0.43006549996789545,0.43006549996789545,1.4308938999893144,True,far-000,50,4,2,2.5,2,up,2,0
259,1,True,1.3140316000208259,33.0,800.0,100.0,0,True,3,down,0.16666666666666666,55,0,0.902536399953533,0.902536399953533,0.3944904999807477,True,far-rnd3,51,3,3,1.875,3,down,1,0
260,2,True,1.7039965000003576,33.0,100.0,800.0,0,True,2,up,0.16666666666666666,25,0,0.44278869999106973,0.44278869999106973,0.5659109999542125,False,far-000,51,5,2,3.125,2,up,2,0
261,3,True,0.8769448999664746,33.0,800.0,100.0,0,True,3,down,0.16666666666666666,55,0,0.9169588999939151,0.9169588999939151,0.25446259998716414,True,far-rnd3,52,4,4,2.5,3,down,1,0
262,3,True,1.0486738000181504,33.0,100.0,800.0,0,True,2,up,0.16666666666666666,25,0,0.4399110000231303,0.4399110000231303,1.083612999995239,True,far-000,52,6,3,3.75,2,up,2,0
263,1,True,1.4875750999781303,33.0,100.0,800.0,0,True,2,up,0.16666666666666666,25,0,0.43206230003852397,0.43206230003852397,0.7194721000269055,False,far-000,53,7,3,4.375,2,up,2,0
264,4,True,1.0211894999956712,33.0,800.0,100.0,0,True,3,down,0.16666666666666666,55,0,0.9265334000228904,0.9265334000228904,0.6430266000097618,False,far-rnd3,53,5,4,3.125,3,down,1,0
265,2,True,0.7565976000041701,33.0,800.0,100.0,0,True,3,down,0.16666666666666666,55,0,1.0514805000275373,1.0514805000275373,0.5867665000259876,False,far-rnd3,54,6,4,3.75,3,down,1,0
266,1,True,1.544569700025022,33.0,100.0,800.0,0,True,2,up,0.16666666666666666,25,0,0.4372938000014983,0.4372938000014983,1.0578217000002041,True,far-000,54,8,4,5.0,2,up,2,0
267,2,True,1.2120579000329599,33.0,800.0,100.0,0,True,3,down,0.16666666666666666,55,0,0.9134445000090636,0.9134445000090636,0.8847052999772131,True,far-rnd3,55,7,5,4.375,3,down,1,0
268,2,True,1.1647386999684386,33.0,100.0,800.0,0,True,2,up,0.16666666666666666,25,0,0.4356536000268534,0.4356536000268534,1.4836308999801986,False,far-000,55,9,4,5.625,2,up,2,1
269,3,True,1.8845405000029132,33.0,100.0,800.0,0,True,2,up,0.16666666666666666,25,0,0.4517475999891758,0.4517475999891758,1.5018744000117294,False,far-000,56,10,4,6.25,2,up,2,1
270,1,True,1.3401107999961823,33.0,800.0,100.0,0,True,3,down,0.16666666666666666,55,0,0.9039187000016682,0.9039187000016682,0.8797440999769606,False,far-rnd3,56,8,5,5.0,3,down,1,0
271,2,True,0.8485363000072539,33.0,100.0,800.0,0,True,2,up,0.16666666666666666,27,0,0.46964020002633333,0.46964020002633333,0.8934425000334159,False,far-000,57,1,0,0.625,2,up,2,0
272,1,True,1.3337059000041336,33.0,50.0,100.0,0,True,1,down,0.16666666666666666,33,0,0.5561879000160843,0.5561879000160843,0.47379199997521937,True,far-rnd1,27,1,1,0.625,2,down,16,0
273,4,True,0.8854782999842428,33.0,800.0,100.0,0,True,3,down,0.16666666666666666,55,0,0.9256351999938488,0.9256351999938488,0.3698139000334777,True,far-rnd3,57,9,6,5.625,3,down,16,1
274,3,True,1.4558586000348441,33.0,33.0,100.0,0,False,0,down,0.16666666666666666,14,0,0.24517429998377338,0.24517429998377338,0.49959950003540143,False,far-rnd0,51,1,0,0.625,2,down,16,0
275,4,True,1.134679699956905,33.0,800.0,100.0,0,True,3,down,0.16666666666666666,54,0,0.9031287000398152,0.9031287000398152,0.247423599998001,True,far-rnd3,58,1,1,0.625,0.5,down,16,1
276,2,True,0.9723338999901898,33.0,33.0,100.0,0,False,0,down,0.16666666666666666,14,0,0.3770690999808721,0.3770690999808721,0.9327186000300571,True,far-rnd0,52,2,1,1.25,1.0,down,16,0
277,3,True,0.8388767000287771,33.0,50.0,100.0,0,True,1,down,0.16666666666666666,32,0,0.548433100047987,0.548433100047987,0.47718330001225695,True,far-rnd1,28,1,1,0.625,1.0,down,16,0
278,3,True,1.5701582000474446,33.0,100.0,800.0,0,True,2,up,0.16666666666666666,27,0,0.4699804999982007,0.4699804999982007,0.8359081999515183,True,far-000,58,2,1,1.25,2,up,2,0
279,1,True,1.2204594999784604,33.0,800.0,100.0,0,True,3,down,0.16666666666666666,53,0,0.869522099965252,0.869522099965252,0.7384107999969274,False,far-rnd3,59,1,0,0.625,0.5,down,16,1
280,1,True,1.5905591999762692,33.0,33.0,100.0,0,False,0,down,0.16666666666666666,13,0,0.22095580003224313,0.22095580003224313,0.7174464000272565,False,far-rnd0,53,1,0,0.625,1.0,down,16,0
281,2,True,1.08981680002762,33.0,50.0,100.0,0,True,1,down,0.16666666666666666,31,0,0.5310307999607176,0.5310307999607176,0.43390209996141493,True,far-rnd1,29,1,1,0.625,1.0,down,16,0
282,2,True,0.8447805999894626,33.0,100.0,800.0,0,True,2,up,0.16666666666666666,27,0,0.47409529995638877,0.47409529995638877,0.7573636999586597,True,far-000,59,3,2,1.875,2,up,2,0
283,1,True,1.103881100018043,33.0,100.0,800.0,0,True,2,up,0.16666666666666666,27,0,0.46955270000034943,0.46955270000034943,1.1170473000383936,True,far-000,60,4,3,2.5,2,up,2,0
284,3,True,0.8689522999920882,33.0,33.0,100.0,0,False,0,up,0.16666666666666666,21,0,0.3645016999798827,0.3645016999798827,0.6941059000091627,True,far-rnd0,54,1,1,0.625,0.5,up,8,0
285,3,True,2.466614099976141,33.0,800.0,100.0,0,True,3,up,0.16666666666666666,57,0,0.944290799961891,0.944290799961891,0.7805856000049971,False,far-rnd3,60,1,0,0.625,0.5,up,4,0
286,1,True,1.306381100032013,33.0,50.0,100.0,0,True,1,down,0.16666666666666666,30,0,0.505704999959562,0.505704999959562,0.40791869995882735,True,far-rnd1,30,1,1,0.625,0.5,down,16,0
287,3,True,0.9437837000004947,33.0,800.0,100.0,0,True,3,up,0.16666666666666666,57,0,0.9429843999678269,0.9429843999678269,0.31830299994908273,False,far-rnd3,61,2,0,1.25,1,up,4,0
288,2,True,1.284292500000447,33.0,100.0,800.0,0,True,2,up,0.16666666666666666,27,0,0.4683954000356607,0.4683954000356607,0.7934176999842748,False,far-000,61,5,3,3.125,2,up,2,0
289,3,True,1.5811176999704912,33.0,50.0,100.0,0,True,1,down,0.16666666666666666,29,0,0.4956647999933921,0.4956647999933921,0.5167481999960728,True,far-rnd1,31,1,1,0.625,0.5,down,16,0
290,2,True,1.200882199977059,33.0,33.0,100.0,0,False,0,up,0.16666666666666666,21,0,0.35166410001693293,0.35166410001693293,0.40293989999918267,True,far-rnd0,55,2,2,1.25,1,up,8,0
291,2,True,1.648417599964887,33.0,800.0,100.0,0,True,3,up,0.16666666666666666,61,0,1.007387200021185,1.007387200021185,0.3598878000047989,True,far-rnd3,62,1,1,0.625,1,up,4,0
292,2,True,1.9263405999518,33.0,50.0,100.0,0,True,1,down,0.16666666666666666,28,0,0.4793210999923758,0.4793210999923758,0.5484941999893636,True,far-rnd1,32,1,1,0.625,0.5,down,16,0
293,4,True,1.2214490000042133,33.0,33.0,100.0,0,False,0,up,0.16666666666666666,21,0,0.3630801999825053,0.3630801999825053,0.5399942999938503,False,far-rnd0,56,3,2,1.875,1,up,8,0
294,4,True,0.9958447000244632,33.0,100.0,800.0,0,True,2,up,0.16666666666666666,27,0,0.4745017000241205,0.4745017000241205,0.8197774000000209,True,far-000,62,6,4,3.75,2,up,2,0
295,3,True,0.9723016999778338,33.0,800.0,100.0,0,True,3,up,0.16666666666666666,61,0,1.014324099989608,1.014324099989608,0.2265363999758847,True,far-rnd3,63,2,2,1.25,1,up,4,0
296,1,True,1.2854005999979563,33.0,100.0,800.0,0,True,2,up,0.16666666666666666,27,0,0.4617551999981515,0.4617551999981515,0.6993503999547102,True,far-000,63,7,5,4.375,2,up,2,0
297,1,True,1.162588799954392,33.0,33.0,100.0,0,False,0,up,0.16666666666666666,21,0,0.34854899998754263,0.34854899998754263,0.44285480002872646,True,far-rnd0,57,4,3,2.5,1,up,8,0
298,1,True,0.9607506000320427,33.0,50.0,100.0,0,True,1,down,0.16666666666666666,27,0,0.45728029997553676,0.45728029997553676,0.5788998000207357,False,far-rnd1,33,1,0,0.625,0.5,down,16,0
299,1,True,1.554154900019057,33.0,100.0,800.0,0,True,2,up,0.16666666666666666,27,0,0.4663410999928601,0.4663410999928601,1.3539996999897994,False,far-000,64,8,5,5.0,2,up,2,0
300,1,True,1.016350100049749,33.0,50.0,100.0,0,True,1,up,0.16666666666666666,35,0,0.5830082999891602,0.5830082999891602,0.3382920000003651,True,far-rnd1,34,1,1,0.625,0.5,up,8,0
301,3,True,1.1187109999591485,33.0,33.0,100.0,0,False,0,up,0.16666666666666666,21,0,0.3593668000539765,0.3593668000539765,0.4109559999778867,True,far-rnd0,58,5,4,3.125,1,up,8,0
302,1,True,1.1089795000152662,33.0,800.0,100.0,0,True,3,up,0.16666666666666666,61,0,1.0042569999932311,1.0042569999932311,0.7759679000009783,True,far-rnd3,64,3,3,1.875,1,up,4,0
303,3,True,1.0162890999927185,33.0,800.0,100.0,0,True,3,down,0.16666666666666666,59,0,0.9764570000115782,0.9764570000115782,0.4360109000117518,True,far-rnd3,65,1,1,0.625,1,down,2,0
304,2,True,1.1047521000145935,33.0,33.0,100.0,0,False,0,up,0.16666666666666666,21,0,0.35396379994926974,0.35396379994926974,0.6498573999851942,True,far-rnd0,59,6,5,3.75,1,up,8,0
305,3,True,0.964597899990622,33.0,50.0,100.0,0,True,1,up,0.16666666666666666,35,0,0.606065200001467,0.606065200001467,0.20847710000816733,True,far-rnd1,35,2,2,1.25,1,up,8,0
306,3,True,1.1968771000392735,33.0,100.0,800.0,0,True,2,up,0.16666666666666666,27,0,0.47292809997452423,0.47292809997452423,0.6060410000500269,False,far-000,65,9,5,5.625,2,up,2,1
307,2,True,1.290210000006482,33.0,50.0,100.0,0,True,1,up,0.16666666666666666,35,0,0.5913268000003882,0.5913268000003882,0.1607376000029035,True,far-rnd1,36,3,3,1.875,1,up,8,0
308,1,True,1.226283899974078,33.0,33.0,100.0,0,False,0,down,0.16666666666666666,17,0,0.2847745000035502,0.2847745000035502,1.235507300007157,False,far-rnd0,60,1,0,0.625,1,down,4,0
309,1,True,1.3465195000171661,33.0,100.0,800.0,0,True,2,up,0.16666666666666666,27,0,0.4603588000172749,0.4603588000172749,0.6988844000152312,False,far-000,66,10,5,6.25,2,up,2,1
310,2,True,0.728154199954588,33.0,800.0,100.0,0,True,3,down,0.16666666666666666,59,0,0.9808752000099048,0.9808752000099048,0.08119120000628754,True,far-rnd3,66,2,2,1.25,2,down,2,0
311,1,True,1.2224958000006154,33.0,800.0,100.0,0,True,3,down,0.16666666666666666,59,0,0.973258399986662,0.973258399986662,0.3182202000170946,True,far-rnd3,67,3,3,1.875,2,down,2,0
312,4,True,1.1850621000048704,33.0,33.0,100.0,0,False,0,down,0.16666666666666666,17,0,0.29879960004473105,0.29879960004473105,0.5344067999976687,True,far-rnd0,61,2,1,1.25,1,down,4,0
313,1,True,1.4756612000055611,33.0,50.0,100.0,0,True,1,down,0.16666666666666666,31,0,0.5253762999782339,0.5253762999782339,0.38308990001678467,True,far-rnd1,37,1,1,0.625,1,down,4,0
314,1,True,1.3480554000125267,33.0,100.0,800.0,0,True,2,up,0.16666666666666666,27,0,0.4651653000037186,0.4651653000037186,0.9016923999879509,False,far-000,67,11,5,6.875,2,up,2,1
315,2,True,1.4238284999737516,33.0,50.0,100.0,0,True,1,down,0.16666666666666666,31,0,0.5292803000193089,0.5292803000193089,0.4843651999835856,True,far-rnd1,38,2,2,1.25,1,down,4,0
316,4,True,0.7194172999588773,33.0,800.0,100.0,0,True,3,down,0.16666666666666666,59,0,0.9822921000304632,0.9822921000304632,0.43991680000908673,True,far-rnd3,68,4,4,2.5,2,down,2,0
317,2,True,1.1359299999894574,33.0,100.0,800.0,0,True,2,up,0.16666666666666666,27,0,0.4712779999827035,0.4712779999827035,0.6600516000180505,False,far-000,68,12,5,7.5,2,up,2,1
318,1,True,1.416695699968841,33.0,33.0,100.0,0,False,0,down,0.16666666666666666,17,0,0.287242199992761,0.287242199992761,0.688496699964162,True,far-rnd0,62,3,2,1.875,1,down,4,0
319,4,True,0.9894521000096574,33.0,33.0,100.0,0,False,0,down,0.16666666666666666,17,0,0.29732110002078116,0.29732110002078116,0.48191319999750704,True,far-rnd0,63,4,3,2.5,1,down,4,0
320,2,True,0.9826698999968357,33.0,800.0,100.0,0,True,3,down,0.16666666666666666,59,0,0.9777760000433773,0.9777760000433773,0.8613102000090294,False,far-rnd3,69,5,4,3.125,2,down,2,0
321,2,True,1.4684212000574917,33.0,50.0,100.0,0,True,1,down,0.16666666666666666,31,0,0.5315550999948755,0.5315550999948755,0.47207000001799315,True,far-rnd1,39,3,3,1.875,1,down,4,0
322,2,True,1.3695569999981672,33.0,100.0,800.0,0,True,2,up,0.16666666666666666,29,0,0.4962912000482902,0.4962912000482902,0.6734413999947719,False,far-000,69,1,0,0.625,2,up,2,0
323,2,True,0.8756345000001602,33.0,50.0,100.0,0,True,1,down,0.16666666666666666,27,0,0.4680225999909453,0.4680225999909453,0.6912350000347942,True,far-rnd1,40,1,1,0.625,1,down,4,0
324,3,True,0.7827752999728546,33.0,800.0,100.0,0,True,3,down,0.16666666666666666,59,0,0.9783933000289835,0.9783933000289835,0.3315914000268094,True,far-rnd3,70,6,5,3.75,2,down,2,0
325,1,True,1.221828900044784,33.0,100.0,800.0,0,True,2,up,0.16666666666666666,29,0,0.49671789997955784,0.49671789997955784,0.8391549000516534,False,far-000,70,2,0,1.25,2,up,2,0
326,3,True,1.6223437000298873,33.0,33.0,100.0,0,False,0,down,0.16666666666666666,17,0,0.2949917000369169,0.2949917000369169,0.4628044000128284,True,far-rnd0,64,5,4,3.125,1,down,4,0
327,3,True,1.435848499997519,33.0,800.0,100.0,0,True,3,down,0.16666666666666666,59,0,0.9770128999953158,0.9770128999953158,0.2551515999948606,False,far-rnd3,71,7,5,4.375,2,down,2,0
328,3,True,1.0493927999632433,33.0,100.0,800.0,0,True,2,up,0.16666666666666666,29,0,0.5028899000026286,0.5028899000026286,1.3481052000424825,False,far-000,71,3,0,1.875,2,up,2,0
329,1,True,1.9582978000398725,33.0,50.0,100.0,0,True,1,down,0.16666666666666666,27,0,0.4581629000022076,0.4581629000022076,0.38572339998790994,True,far-rnd1,41,2,2,1.25,1,down,4,0
330,2,True,1.2665104999905452,33.0,33.0,100.0,0,False,0,down,0.16666666666666666,17,0,0.2932196999900043,0.2932196999900043,0.46061370003735647,True,far-rnd0,65,6,5,3.75,1,down,4,0
331,1,True,1.0160708999610506,33.0,50.0,100.0,0,True,1,down,0.16666666666666666,27,0,0.46204800001578405,0.46204800001578405,0.4337328000110574,True,far-rnd1,42,3,3,1.875,1,down,4,0
332,3,True,1.37217840005178,33.0,33.0,100.0,0,False,0,down,0.16666666666666666,13,0,0.23149809997994453,0.23149809997994453,0.5461898999637924,True,far-rnd0,66,1,1,0.625,1,down,4,0
333,2,True,0.912513300019782,33.0,800.0,100.0,0,True,3,down,0.16666666666666666,59,0,0.9777622999972664,0.9777622999972664,2.423269600025378,False,far-rnd3,72,8,5,5.0,2,down,2,0
334,3,True,1.0647308999905363,33.0,100.0,800.0,0,True,2,up,0.16666666666666666,29,0,0.5163841000176035,0.5163841000176035,0.5937289000139572,True,far-000,72,4,1,2.5,2,up,2,0
335,2,True,0.8417992999893613,33.0,800.0,100.0,0,True,3,down,0.16666666666666666,59,0,0.968447900027968,0.968447900027968,0.43537939997622743,False,far-rnd3,73,9,5,5.625,2,down,2,1
336,1,True,1.0352726000128314,33.0,100.0,800.0,0,True,2,up,0.16666666666666666,29,0,0.501562399964314,0.501562399964314,0.6421243000077084,False,far-000,73,5,1,3.125,2,up,2,0
337,1,True,1.2081356999697164,33.0,33.0,100.0,0,False,0,down,0.16666666666666666,13,0,0.22041700000409037,0.22041700000409037,0.7248768000281416,True,far-rnd0,67,2,2,1.25,1,down,4,0
338,3,True,4.113650399958715,33.0,50.0,100.0,0,True,1,down,0.16666666666666666,23,0,0.41367559996433556,0.41367559996433556,0.4670262999716215,True,far-rnd1,43,1,1,0.625,1,down,4,0
339,3,True,0.9995746000204235,33.0,50.0,100.0,0,True,1,down,0.16666666666666666,23,0,0.4056709000142291,0.4056709000142291,0.4743976999889128,True,far-rnd1,44,2,2,1.25,1,down,4,0
340,2,True,1.1559734999900684,33.0,800.0,100.0,0,True,3,down,0.16666666666666666,59,0,0.9810871999943629,0.9810871999943629,0.7151264999993145,False,far-rnd3,74,10,5,6.25,2,down,2,1
341,4,True,1.2026036000461318,33.0,33.0,100.0,0,False,0,down,0.16666666666666666,13,0,0.23787179996725172,0.23787179996725172,1.1836248000035994,False,far-rnd0,68,3,2,1.875,1,down,4,0
342,1,True,1.4565921999746934,33.0,100.0,800.0,0,True,2,up,0.16666666666666666,33,0,0.558489200018812,0.558489200018812,0.7544124000123702,False,far-000,74,1,0,0.625,2,up,4,0
343,1,True,1.2333703999756835,33.0,50.0,100.0,0,True,1,down,0.16666666666666666,23,0,0.39348500000778586,0.39348500000778586,0.6591220999835059,False,far-rnd1,45,3,2,1.875,1,down,4,0
344,1,True,1.094837800017558,33.0,100.0,800.0,0,True,2,up,0.16666666666666666,33,0,0.5613243000116199,0.5613243000116199,0.8627648999681696,True,far-000,75,2,1,1.25,1,up,4,0
345,3,True,0.8600308000459336,33.0,33.0,100.0,0,False,0,down,0.16666666666666666,13,0,0.2326543999952264,0.2326543999952264,0.5462375999777578,True,far-rnd0,69,4,3,2.5,1,down,4,0
346,2,True,1.0736791000235826,33.0,800.0,100.0,0,True,3,down,0.16666666666666666,59,0,0.9734091000282206,0.9734091000282206,0.28044339996995404,False,far-rnd3,75,11,5,6.875,2,down,2,1
347,2,True,0.9895623999764211,33.0,33.0,100.0,0,False,0,down,0.16666666666666666,13,0,0.2264382999856025,0.2264382999856025,0.7499528999906033,True,far-rnd0,70,5,4,3.125,1,down,4,0
348,1,True,1.1027900999761187,33.0,50.0,100.0,0,True,1,down,0.16666666666666666,23,0,0.3944266999606043,0.3944266999606043,0.5424690999789163,True,far-rnd1,46,4,3,2.5,1,down,4,0
349,3,True,0.9437403000192717,33.0,800.0,100.0,0,True,3,down,0.16666666666666666,59,0,0.9815187999629416,0.9815187999629416,0.19668019999517128,True,far-rnd3,76,12,6,7.5,2,down,2,1
350,2,True,0.8855220999685116,33.0,100.0,800.0,0,True,2,up,0.16666666666666666,33,0,0.5589378000004217,0.5589378000004217,0.5288320999825373,False,far-000,76,3,1,1.875,1,up,4,0
351,5,True,1.0265080000390299,33.0,33.0,100.0,0,False,0,down,0.16666666666666666,13,0,0.2565681000123732,0.2565681000123732,1.2988549000001512,False,far-rnd0,71,6,4,3.75,1,down,4,0
352,1,True,7.031848500017077,33.0,100.0,800.0,0,True,2,up,0.16666666666666666,33,0,0.5626951000303961,0.5626951000303961,0.5847533000051044,True,far-000,77,4,2,2.5,1,up,4,0
353,1,True,4.340965299983509,33.0,800.0,100.0,0,True,3,down,0.16666666666666666,59,0,1.1190841000061482,1.1190841000061482,0.19760209997184575,True,far-rnd3,77,13,7,8.125,2,down,2,1
354,1,True,1.1729028000263497,33.0,50.0,100.0,0,True,1,down,0.16666666666666666,23,0,0.3954577000113204,0.3954577000113204,0.48292809998383746,True,far-rnd1,47,5,4,3.125,1,down,4,0
355,1,True,1.1921976000303403,33.0,50.0,100.0,0,True,1,down,0.16666666666666666,23,0,0.39188340003602207,0.39188340003602207,0.6745804999954998,False,far-rnd1,48,6,4,3.75,1,down,4,0
356,1,True,1.8638345000217669,33.0,800.0,100.0,0,True,3,down,0.16666666666666666,59,0,0.9689066000282764,0.9689066000282764,0.2877925999928266,True,far-rnd3,78,14,8,8.75,2,down,2,1
357,1,True,1.1617930999491364,33.0,33.0,100.0,0,False,0,down,0.16666666666666666,13,0,0.22294470004271716,0.22294470004271716,0.873785300005693,True,far-rnd0,72,7,5,4.375,1,down,4,0
358,2,True,1.1440719999955036,33.0,100.0,800.0,0,True,2,up,0.16666666666666666,33,0,0.5700886000413448,0.5700886000413448,0.6659306000219658,False,far-000,78,5,2,3.125,1,up,4,0
359,3,True,0.8078760000062175,33.0,100.0,800.0,0,True,2,up,0.16666666666666666,41,0,0.7049866000306793,0.7049866000306793,0.4099230999709107,True,far-000,79,1,1,0.625,1,up,8,0
360,3,True,1.1074281000182964,33.0,50.0,100.0,0,True,1,down,0.16666666666666666,23,0,0.4048756000120193,0.4048756000120193,0.6278188000433147,False,far-rnd1,49,7,4,4.375,1,down,4,0
361,1,True,1.2012398000224493,33.0,33.0,100.0,0,False,0,down,0.16666666666666666,13,0,0.22447959997225553,0.22447959997225553,1.4589105999912135,False,far-rnd0,73,8,5,5.0,1,down,4,0
362,3,True,0.7929247000138275,33.0,800.0,100.0,0,True,3,down,0.16666666666666666,59,0,0.9764542999910191,0.9764542999910191,0.5363922999822535,True,far-rnd3,79,15,9,9.375,2,down,2,1
363,4,True,1.050745900021866,33.0,100.0,800.0,0,True,2,up,0.16666666666666666,41,0,0.7098188999807462,0.7098188999807462,0.47193449997575954,False,far-000,80,2,1,1.25,1,up,8,0
364,1,True,1.6989420999889262,33.0,50.0,100.0,0,True,1,down,0.16666666666666666,23,0,0.3966278999578208,0.3966278999578208,0.5504986000014469,False,far-rnd1,50,8,4,5.0,1,down,4,0
365,3,True,1.1751642000162974,33.0,800.0,100.0,0,True,3,down,0.16666666666666666,59,0,0.9782295000040904,0.9782295000040904,0.3327733000041917,True,far-rnd3,80,16,10,10.0,2,down,2,1
366,3,True,0.8521286000031978,33.0,33.0,100.0,0,False,0,down,0.16666666666666666,13,0,0.23350209998898208,0.23350209998898208,0.7788902999600396,False,far-rnd0,74,9,5,5.625,1,down,4,1
367,3,True,0.873861100000795,33.0,50.0,100.0,0,True,1,down,0.16666666666666666,23,0,0.41100960003677756,0.41100960003677756,0.6985422999714501,True,far-rnd1,51,9,5,5.625,1,down,4,1
368,2,True,1.0053225999581628,33.0,33.0,100.0,0,False,0,down,0.16666666666666666,13,0,0.2283315000240691,0.2283315000240691,0.5612046000314876,False,far-rnd0,75,10,5,6.25,1,down,4,1
369,3,True,3.054932300001383,33.0,100.0,800.0,0,True,2,up,0.16666666666666666,41,0,0.6949400000157766,0.6949400000157766,0.8181931000435725,True,far-000,81,3,2,1.875,1,up,8,0
370,1,True,1.1125288999755867,33.0,800.0,100.0,0,True,3,down,0.16666666666666666,59,0,0.9693981000455096,0.9693981000455096,0.5913375000236556,True,far-rnd3,81,17,11,10.625,2,down,2,2
371,2,True,0.7500564000220038,33.0,800.0,100.0,0,True,3,down,0.16666666666666666,59,0,0.9759138000081293,0.9759138000081293,0.5362196000060067,False,far-rnd3,82,18,11,11.25,2,down,2,2
372,3,True,0.8220634000026621,33.0,100.0,800.0,0,True,2,up,0.16666666666666666,41,0,0.8585073999711312,0.8585073999711312,0.23651640000753105,True,far-000,82,4,3,2.5,1,up,8,0
373,1,True,1.4281050999998115,33.0,33.0,100.0,0,False,0,up,0.16666666666666666,14,0,0.2362748000305146,0.2362748000305146,0.6687012999900617,True,far-rnd0,76,1,1,0.625,1,up,1,0
374,1,True,0.9171594000072218,33.0,50.0,100.0,0,True,1,down,0.16666666666666666,23,0,0.39270419999957085,0.39270419999957085,0.56374599999981,True,far-rnd1,52,10,6,6.25,1,down,4,1
375,1,True,1.687054399983026,33.0,33.0,100.0,0,False,0,up,0.16666666666666666,14,0,0.23530500003835186,0.23530500003835186,0.7328859000117518,False,far-rnd0,77,2,1,1.25,2,up,1,0
376,2,True,0.8536907000234351,33.0,100.0,800.0,0,True,2,up,0.16666666666666666,41,0,0.6906918999738991,0.6906918999738991,0.741560099995695,False,far-000,83,5,3,3.125,1,up,8,0
377,1,True,1.7635465000057593,33.0,50.0,100.0,0,True,1,down,0.16666666666666666,23,0,0.39728949998971075,0.39728949998971075,0.6090528999920934,False,far-rnd1,53,11,6,6.875,1,down,4,1
378,2,True,0.7724564999807626,33.0,800.0,100.0,0,True,3,down,0.16666666666666666,59,0,0.9701288000214845,0.9701288000214845,0.28205009998055175,True,far-rnd3,83,19,12,11.875,2,down,2,2
379,4,True,1.137025999953039,33.0,800.0,100.0,0,True,3,down,0.16666666666666666,59,0,0.9867101999698207,0.9867101999698207,0.26424109999788925,True,far-rnd3,84,20,13,12.5,2,down,2,2
380,1,True,1.1116769000072964,33.0,100.0,800.0,0,True,2,up,0.16666666666666666,41,0,0.6934737000265159,0.6934737000265159,0.6522613000124693,False,far-000,84,6,3,3.75,1,up,8,0
381,2,True,0.9763553999946453,33.0,33.0,100.0,0,False,0,up,0.16666666666666666,14,0,0.2456149000208825,0.2456149000208825,0.5369096000213176,True,far-rnd0,78,3,2,1.875,2,up,1,0
382,4,True,1.1253104000352323,33.0,50.0,100.0,0,True,1,down,0.16666666666666666,23,0,0.4045723000308499,0.4045723000308499,0.5379626000067219,False,far-rnd1,54,12,6,7.5,1,down,4,1
383,2,True,0.7571171000017785,33.0,33.0,100.0,0,False,0,up,0.16666666666666666,14,0,0.23970849998295307,0.23970849998295307,0.6395316999987699,True,far-rnd0,79,4,3,2.5,2,up,1,0
384,2,True,0.9198433000128716,33.0,100.0,800.0,0,True,2,up,0.16666666666666666,41,0,0.7007366000325419,0.7007366000325419,0.44440259999828413,True,far-000,85,7,4,4.375,1,up,8,0
385,2,True,1.6024841999751516,33.0,800.0,100.0,0,True,3,down,0.16666666666666666,59,0,0.9723015999770723,0.9723015999770723,0.7841088999994099,False,far-rnd3,85,21,13,13.125,2,down,2,2
386,3,True,0.893336899986025,33.0,50.0,100.0,0,True,1,up,0.16666666666666666,24,0,0.41917730000568554,0.41917730000568554,0.5335122999968007,True,far-rnd1,55,1,1,0.625,1,up,1,0
387,1,True,0.9750678999698721,33.0,50.0,100.0,0,True,1,up,0.16666666666666666,24,0,0.41157769999699667,0.41157769999699667,0.577557299984619,True,far-rnd1,56,2,2,1.25,2,up,1,0
388,1,True,1.1920367000275292,33.0,800.0,100.0,0,True,3,down,0.16666666666666666,59,0,0.9716609999886714,0.9716609999886714,0.3867348000057973,True,far-rnd3,86,22,14,13.75,2,down,2,2
389,3,True,1.0871568000293337,33.0,33.0,100.0,0,False,0,up,0.16666666666666666,14,0,0.243538599985186,0.243538599985186,0.5232843999983743,True,far-rnd0,80,5,4,3.125,2,up,1,0
390,3,True,1.1431322999997064,33.0,100.0,800.0,0,True,2,up,0.16666666666666666,41,0,0.6922596000367776,0.6922596000367776,0.7420871999929659,False,far-000,86,8,4,5.0,1,up,8,0
391,3,True,2.1501063999603502,33.0,100.0,800.0,0,True,2,up,0.16666666666666666,41,0,0.7010503999772482,0.7010503999772482,0.5158984999870881,True,far-000,87,9,5,5.625,1,up,8,1
392,1,True,1.6236365999793634,33.0,800.0,100.0,0,True,3,down,0.16666666666666666,59,0,0.968808599980548,0.968808599980548,0.5427091000019573,True,far-rnd3,87,23,15,14.375,2,down,2,2
393,1,True,1.7415502999792807,33.0,33.0,100.0,0,False,0,up,0.16666666666666666,14,0,0.2380430999910459,0.2380430999910459,1.6110662000137381,False,far-rnd0,81,6,4,3.75,2,up,1,0
394,2,True,0.8463663999573328,33.0,50.0,100.0,0,True,1,up,0.16666666666666666,24,0,0.415504599979613,0.415504599979613,0.4565102999913506,True,far-rnd1,57,3,3,1.875,2,up,1,0
395,3,True,0.937647599959746,33.0,33.0,100.0,0,False,0,up,0.16666666666666666,14,0,0.24753880000207573,0.24753880000207573,0.474136000033468,True,far-rnd0,82,7,5,4.375,2,up,1,0
396,4,True,1.117334899958223,33.0,800.0,100.0,0,True,3,down,0.16666666666666666,59,0,0.9863912999862805,0.9863912999862805,0.6909955000155605,False,far-rnd3,88,24,15,15.0,2,down,2,2
397,4,True,0.8792311999714002,33.0,50.0,100.0,0,True,1,up,0.16666666666666666,24,0,0.4226837999885902,0.4226837999885902,0.37553309998475015,False,far-rnd1,58,4,3,2.5,2,up,1,0
398,1,True,1.0610566000104882,33.0,100.0,800.0,0,True,2,up,0.16666666666666666,41,0,0.6913336000288837,0.6913336000288837,0.4641499000135809,True,far-000,88,10,6,6.25,1,up,8,1
399,2,True,1.1254326999769546,33.0,33.0,100.0,0,False,0,up,0.16666666666666666,14,0,0.2403578999801539,0.2403578999801539,0.6130230000126176,True,far-rnd0,83,8,6,5.0,2,up,1,0
400,2,True,1.0399359000148252,33.0,100.0,800.0,0,True,2,up,0.16666666666666666,41,0,0.7003163000335917,0.7003163000335917,0.6346655000234023,False,far-000,89,11,6,6.875,1,up,8,1
401,2,True,1.2225107999984175,33.0,50.0,100.0,0,True,1,up,0.16666666666666666,24,0,0.4110733999987133,0.4110733999987133,0.42345589998876676,False,far-rnd1,59,5,3,3.125,2,up,1,0
402,4,True,5.743539499992039,33.0,50.0,100.0,0,True,1,up,0.16666666666666666,24,0,0.4264227999956347,0.4264227999956347,0.4806467999587767,False,far-rnd1,60,6,3,3.75,2,up,1,0
403,2,True,1.39559949998511,33.0,100.0,800.0,0,True,2,up,0.16666666666666666,41,0,0.6946882999618538,0.6946882999618538,0.6840518999961205,False,far-000,90,12,6,7.5,1,up,8,1
404,3,True,1.12094450002769,33.0,33.0,100.0,0,False,0,up,0.16666666666666666,14,0,0.24780100001953542,0.24780100001953542,0.633239799994044,False,far-rnd0,84,9,6,5.625,2,up,1,1
405,2,True,1.1895189000060782,33.0,33.0,100.0,0,False,0,up,0.16666666666666666,14,0,0.26587490004021674,0.26587490004021674,0.7629141999641433,False,far-rnd0,85,10,6,6.25,2,up,1,1
406,1,True,6.822647099965252,33.0,50.0,100.0,0,True,1,up,0.16666666666666666,24,0,0.41897950001293793,0.41897950001293793,0.49788749997969717,False,far-rnd1,61,7,3,4.375,2,up,1,0
407,1,True,1.1150267000193708,33.0,100.0,800.0,0,True,2,up,0.16666666666666666,49,0,0.8180973999551497,0.8180973999551497,0.256329600000754,True,far-000,91,1,1,0.625,1,up,8,0
408,3,True,1.3418597999843769,33.0,100.0,800.0,0,True,2,up,0.16666666666666666,49,0,0.8343653000192717,0.8343653000192717,0.32888119999552146,True,far-000,92,2,2,1.25,1,up,8,0
409,1,True,1.4803270000265911,33.0,33.0,100.0,0,False,0,up,0.16666666666666666,14,0,0.23899710003752261,0.23899710003752261,1.0303701999946497,True,far-rnd0,86,11,7,6.875,2,up,1,1
410,1,True,1.0196574999717996,33.0,50.0,100.0,0,True,1,up,0.16666666666666666,24,0,0.409245099988766,0.409245099988766,0.6906413999968208,False,far-rnd1,62,8,3,5.0,2,up,1,0
411,2,True,0.9734781999723054,33.0,100.0,800.0,0,True,2,up,0.16666666666666666,49,0,0.821729100018274,0.821729100018274,0.43311879999237135,True,far-000,93,3,3,1.875,1,up,8,0
412,2,True,1.7591023999848403,33.0,33.0,100.0,0,False,0,up,0.16666666666666666,14,0,0.23922259995015338,0.23922259995015338,1.1920950000057928,True,far-rnd0,87,12,8,7.5,2,up,1,1
413,1,True,0.936888900003396,33.0,50.0,100.0,0,True,1,up,0.16666666666666666,24,0,0.4282821000088006,0.4282821000088006,1.5390792000107467,False,far-rnd1,63,9,3,5.625,2,up,1,1
414,1,True,1.651195899990853,33.0,100.0,800.0,0,True,2,down,0.16666666666666666,45,0,0.7548965999740176,0.7548965999740176,0.7205884999711998,True,far-000,94,1,1,0.625,1,down,4,0
415,2,True,0.7695827999850735,33.0,33.0,100.0,0,False,0,up,0.16666666666666666,14,0,0.2417979000019841,0.2417979000019841,0.5708759000408463,True,far-rnd0,88,13,9,8.125,2,up,1,1
416,2,True,0.7661019000224769,33.0,50.0,100.0,0,True,1,up,0.16666666666666666,25,0,0.4372238999931142,0.4372238999931142,0.815926999959629,False,far-rnd1,64,1,0,0.625,2,up,1,0
417,4,True,1.7043372000334784,33.0,33.0,100.0,0,False,0,up,0.16666666666666666,14,0,0.24620519997552037,0.24620519997552037,0.8163597999955527,True,far-rnd0,89,14,10,8.75,2,up,1,1
418,2,True,1.0479626000160351,33.0,50.0,100.0,0,True,1,up,0.16666666666666666,25,0,0.4290019000181928,0.4290019000181928,0.6486170999705791,True,far-rnd1,65,2,1,1.25,3,up,1,0
419,3,True,0.8498704999801703,33.0,100.0,800.0,0,True,2,down,0.16666666666666666,45,0,0.7577571000438184,0.7577571000438184,0.40187359997071326,True,far-000,95,2,2,1.25,1,down,4,0
420,2,True,1.056217800010927,33.0,33.0,100.0,0,False,0,up,0.16666666666666666,14,0,0.24553580000065267,0.24553580000065267,1.0934478000272065,True,far-rnd0,90,15,11,9.375,2,up,1,1
421,3,True,0.6603511000284925,33.0,100.0,800.0,0,True,2,down,0.16666666666666666,45,0,0.7598690000013448,0.7598690000013448,0.7890606999862939,False,far-000,96,3,2,1.875,1,down,4,0
422,2,True,1.7800288000144064,33.0,50.0,100.0,0,True,1,up,0.16666666666666666,25,0,0.43613220000406727,0.43613220000406727,0.4256527000106871,True,far-rnd1,66,3,2,1.875,3,up,1,0
423,2,True,0.816799100022763,33.0,50.0,100.0,0,True,1,up,0.16666666666666666,25,0,0.5429471000097692,0.5429471000097692,0.3766617000219412,True,far-rnd1,67,4,3,2.5,3,up,1,0
424,3,True,1.0105253999936394,33.0,33.0,100.0,0,False,0,up,0.16666666666666666,14,0,0.24846030003391206,0.24846030003391206,0.6957263000076637,True,far-rnd0,91,16,12,10.0,2,up,1,1
425,1,True,1.1615613999892958,33.0,100.0,800.0,0,True,2,down,0.16666666666666666,45,0,0.7561452999943867,0.7561452999943867,0.5059937000041828,True,far-000,97,4,3,2.5,1,down,4,0
426,3,True,1.0450433000223711,33.0,50.0,100.0,0,True,1,up,0.16666666666666666,25,0,0.43365699995774776,0.43365699995774776,0.7457658999483101,False,far-rnd1,68,5,3,3.125,3,up,1,0
427,2,True,0.8757619999814779,33.0,100.0,800.0,0,True,2,down,0.16666666666666666,45,0,0.7615878999931738,0.7615878999931738,0.5127898000064306,True,far-000,98,5,4,3.125,1,down,4,0
428,4,True,0.8855583000113256,33.0,50.0,100.0,0,True,1,up,0.16666666666666666,25,0,0.4339769000071101,0.4339769000071101,0.362464000005275,True,far-rnd1,69,6,4,3.75,3,up,1,0
429,3,True,0.9013730000006035,33.0,100.0,800.0,0,True,2,down,0.16666666666666666,45,0,0.7694561000098474,0.7694561000098474,0.6095578000531532,True,far-000,99,6,5,3.75,1,down,4,0
430,1,True,1.5742442000191659,33.0,50.0,100.0,0,True,1,up,0.16666666666666666,25,0,0.43021160003263503,0.43021160003263503,0.7226623999886215,False,far-rnd1,70,7,4,4.375,3,up,1,0
431,1,True,1.0342530999914743,33.0,100.0,800.0,0,True,2,down,0.16666666666666666,41,0,0.8072433000197634,0.8072433000197634,0.4658647000323981,True,far-000,100,1,1,0.625,1,down,4,0
