trial,primeIter,primeCorrect,primeTime,primeDepth,stimDepth,extraDepth,driveFrames,nearToFar,diopters,direction,size,intensity,extraLatency,mainLatency,totalLatency,responseTime,correct,caseLabel,caseTrial,trialsAtStep,stepCorrect,expected,w,direction,stepsize,stepChange
1,3,True,1.9784934000344947,33.0,800.0,100.0,0,True,3,start,0.16666666666666666,60,0,0.9938889000331983,0.9938889000331983,0.570272000040859,True,far-rnd3,1,1,1,0.625,0.5,start,16,0
2,2,True,1.8391620999900624,33.0,100.0,800.0,5,True,2,start,0.16666666666666666,60,0.089028500020504,1.0051175000262447,1.0941460000467487,2.1980312000378035,True,far-080,1,1,1,0.625,0.5,start,16,0
3,3,True,5.395799099991564,33.0,100.0,800.0,10,True,2,start,0.16666666666666666,60,0.17381509998813272,1.0143938999972306,1.1882089999853633,0.5065791999804787,True,far-160,1,1,1,0.625,0.5,start,16,0
4,2,True,1.697629300004337,33.0,100.0,800.0,0,True,2,start,0.16666666666666666,60,0,0.998583399981726,0.998583399981726,0.6470198999741115,True,far-000,1,1,1,0.625,0.5,start,16,0
5,4,True,2.1373829999938607,33.0,50.0,100.0,0,True,1,start,0.16666666666666666,60,0,1.0043171999859624,1.0043171999859624,0.6725314999930561,True,far-rnd1,1,1,1,0.625,0.5,start,16,0
6,4,True,1.5463808000204153,33.0,33.0,100.0,0,False,0,start,0.16666666666666666,60,0,0.9875248000025749,0.9875248000025749,0.11566189996665344,True,far-rnd0,1,1,1,0.625,0.5,start,16,0
7,3,True,2.6131523000076413,33.0,100.0,800.0,5,True,2,start,0.16666666666666666,44,0.0929426999646239,0.7514621000154875,0.8444047999801114,0.8638083999976516,True,far-080,2,1,1,0.625,1.0,start,16,0
8,3,True,2.4327822999912314,33.0,100.0,800.0,10,True,2,start,0.16666666666666666,44,0.1735983999678865,0.7561953000258654,0.9297936999937519,0.376316899957601,True,far-160,2,1,1,0.625,1.0,start,16,0
9,2,True,2.1769557999796234,33.0,50.0,100.0,0,True,1,start,0.16666666666666666,44,0,0.7359235000330955,0.7359235000330955,0.2567420999985188,True,far-rnd1,2,1,1,0.625,1.0,start,16,0
10,1,True,3.641615999978967,33.0,100.0,800.0,0,True,2,start,0.16666666666666666,44,0,0.7311686999746598,0.7311686999746598,0.6246033000061288,True,far-000,2,1,1,0.625,1.0,start,16,0
11,2,True,1.3326661000028253,33.0,33.0,100.0,0,False,0,start,0.16666666666666666,44,0,0.7229281999752857,0.7229281999752857,0.27965310000581667,True,far-rnd0,2,1,1,0.625,1.0,start,16,0
12,3,True,3.175073300022632,33.0,800.0,100.0,0,True,3,start,0.16666666666666666,44,0,0.739097399986349,0.739097399986349,1.2696725000278093,True,far-rnd3,2,1,1,0.625,1.0,start,16,0
13,4,True,1.8869956000125967,33.0,33.0,100.0,0,False,0,start,0.16666666666666666,28,0,0.47687480004969984,0.47687480004969984,0.5878116000094451,True,far-rnd0,3,1,1,0.625,1.0,start,16,0
14,3,True,1.569383599970024,33.0,800.0,100.0,0,True,3,start,0.16666666666666666,28,0,0.486358999973163,0.486358999973163,1.7102895000134595,False,far-rnd3,3,1,0,0.625,1.0,start,16,0
15,2,True,1.8808906999765895,33.0,100.0,800.0,10,True,2,start,0.16666666666666666,28,0.17568260000552982,0.48872550000669435,0.6644081000122242,4.442336599982809,False,far-160,3,1,0,0.625,1.0,start,16,0
16,3,True,2.598216099955607,33.0,100.0,800.0,0,True,2,start,0.16666666666666666,28,0,0.4897130999597721,0.4897130999597721,4.084653900004923,False,far-000,3,1,0,0.625,1.0,start,16,0
17,1,True,2.1611504000029527,33.0,50.0,100.0,0,True,1,start,0.16666666666666666,28,0,0.47801739996066317,0.47801739996066317,0.5772580999764614,True,far-rnd1,3,1,1,0.625,1.0,start,16,0
18,2,True,2.1204076999565586,33.0,100.0,800.0,5,True,2,start,0.16666666666666666,28,0.09266630001366138,0.5035480000078678,0.5962143000215292,1.3108815000159666,True,far-080,3,1,1,0.625,1.0,start,16,0
19,3,True,1.7814531000331044,33.0,100.0,800.0,10,True,2,up,0.16666666666666666,36,0.1712064000312239,0.6280544999754056,0.7992609000066295,0.6158927999786101,True,far-160,4,1,1,0.625,0.5,up,8,0
20,4,True,3.2543598999618553,33.0,800.0,100.0,0,True,3,up,0.16666666666666666,36,0,0.6100885000196286,0.6100885000196286,3.649088300007861,True,far-rnd3,4,1,1,0.625,0.5,up,8,0
21,4,True,2.7184782000258565,33.0,100.0,800.0,0,True,2,up,0.16666666666666666,36,0,0.6230612000217661,0.6230612000217661,0.9511466000112705,True,far-000,4,1,1,0.625,0.5,up,8,0
22,1,True,4.867595900024753,33.0,100.0,800.0,5,True,2,start,0.16666666666666666,12,0.08881069999188185,0.23743669997202232,0.32624739996390417,2.2419225000194274,True,far-080,4,1,1,0.625,0.5,start,16,0
23,1,True,2.3566875000251457,33.0,50.0,100.0,0,True,1,start,0.16666666666666666,12,0,0.22034569998504594,0.22034569998504594,2.79158749995986,False,far-rnd1,4,1,0,0.625,0.5,start,16,0
24,1,True,2.8732636000495404,33.0,33.0,100.0,0,False,0,start,0.16666666666666666,12,0,0.2078791999956593,0.2078791999956593,2.0700725000351667,False,far-rnd0,4,1,0,0.625,0.5,start,16,0
25,3,True,3.1051181000075303,33.0,100.0,800.0,10,True,2,up,0.16666666666666666,36,0.17576189996907488,0.6241446999483742,0.7999065999174491,0.6865296000032686,True,far-160,5,2,2,1.25,1,up,8,0
26,2,True,2.066718799993396,33.0,33.0,100.0,0,False,0,up,0.16666666666666666,20,0,0.3387571999919601,0.3387571999919601,1.8998454000102356,True,far-rnd0,5,1,1,0.625,0.5,up,8,0
27,1,True,2.565621299960185,33.0,100.0,800.0,5,True,2,start,0.16666666666666666,0,0.08909520000452176,0.043159699998795986,0.13225490000331774,3.8041680000023916,False,far-080,5,1,0,0.625,0.5,start,16,0
28,3,True,1.479833499994129,33.0,800.0,100.0,0,True,3,up,0.16666666666666666,36,0,0.6162307999911718,0.6162307999911718,4.011839599988889,False,far-rnd3,5,2,1,1.25,1,up,8,0
29,4,True,3.763521699991543,33.0,100.0,800.0,0,True,2,up,0.16666666666666666,36,0,0.6309874000144191,0.6309874000144191,2.3583610999630764,True,far-000,5,2,2,1.25,1,up,8,0
30,2,True,3.787468299968168,33.0,50.0,100.0,0,True,1,up,0.16666666666666666,20,0,0.3546879999921657,0.3546879999921657,1.2000423000426963,False,far-rnd1,5,1,0,0.625,0.5,up,8,0
31,2,True,2.18349580001086,33.0,33.0,100.0,0,False,0,up,0.16666666666666666,20,0,0.33472189999883994,0.33472189999883994,1.037130500015337,True,far-rnd0,6,2,2,1.25,1,up,8,0
32,1,True,2.2455491999862716,33.0,800.0,100.0,0,True,3,up,0.16666666666666666,36,0,0.6029399000108242,0.6029399000108242,4.199440099997446,False,far-rnd3,6,3,1,1.875,1,up,8,0
33,2,True,3.36377390002599,33.0,100.0,800.0,10,True,2,up,0.16666666666666666,36,0.215578600007575,0.6280810000025667,0.8436596000101417,0.5183396000065841,True,far-160,6,3,3,1.875,1,up,8,0
34,3,True,1.6330818999558687,33.0,50.0,100.0,0,True,1,up,0.16666666666666666,20,0,0.35249850002583116,0.35249850002583116,1.8562479000538588,False,far-rnd1,6,2,0,1.25,1,up,8,0
35,1,True,1.9505534999771044,33.0,100.0,800.0,5,True,2,up,0.16666666666666666,8,0.08870799996657297,0.17696289997547865,0.2656708999420516,3.9686502999975346,False,far-080,6,1,0,0.625,0.5,up,8,0
36,1,True,2.912432599987369,33.0,100.0,800.0,0,True,2,up,0.16666666666666666,36,0,0.608480499999132,0.608480499999132,3.781489600019995,False,far-000,6,3,2,1.875,1,up,8,0
37,2,True,2.452668600017205,33.0,33.0,100.0,0,False,0,up,0.16666666666666666,20,0,0.3408223000005819,0.3408223000005819,1.3904526999685913,False,far-rnd0,7,3,2,1.875,1,up,8,0
38,3,True,2.184488600003533,33.0,100.0,800.0,10,True,2,down,0.16666666666666666,32,0.17363799997838214,0.562568099994678,0.7362060999730602,0.6681201999890618,True,far-160,7,1,1,0.625,1,down,4,0
39,1,True,2.1122295999666676,33.0,100.0,800.0,0,True,2,up,0.16666666666666666,36,0,0.6169447000138462,0.6169447000138462,1.2225400999886915,False,far-000,7,4,2,2.5,1,up,8,0
40,2,True,1.2523772999993525,33.0,800.0,100.0,0,True,3,up,0.16666666666666666,36,0,0.6069182999781333,0.6069182999781333,2.1867110999883153,True,far-rnd3,7,4,2,2.5,1,up,8,0
41,2,True,1.1769211000064388,33.0,50.0,100.0,0,True,1,up,0.16666666666666666,28,0,0.475886799977161,0.475886799977161,0.5714618000201881,True,far-rnd1,7,1,1,0.625,1,up,8,0
42,1,True,6.065302600036375,33.0,100.0,800.0,5,True,2,up,0.16666666666666666,8,0.09198100003413856,0.178005599998869,0.26998660003300756,1.27070710004773,False,far-080,7,2,0,1.25,1,up,8,0
43,4,True,2.314229100011289,33.0,800.0,100.0,0,True,3,up,0.16666666666666666,36,0,0.6105543000157923,0.6105543000157923,1.995236000046134,True,far-rnd3,8,5,3,3.125,1,up,8,0
44,2,True,2.6854084000224248,33.0,100.0,800.0,10,True,2,down,0.16666666666666666,32,0.1733688999665901,0.5608211999642663,0.7341900999308564,0.408247500017751,True,far-160,8,2,2,1.25,1,down,4,0
45,2,True,2.379234899999574,33.0,50.0,100.0,0,True,1,up,0.16666666666666666,28,0,0.4768974999897182,0.4768974999897182,0.41472659999271855,True,far-rnd1,8,2,2,1.25,1,up,8,0
46,4,True,2.1647725999937393,33.0,100.0,800.0,0,True,2,up,0.16666666666666666,36,0,0.6244198000058532,0.6244198000058532,0.6619116000365466,True,far-000,8,5,3,3.125,1,up,8,0
47,2,True,1.4217531000031158,33.0,33.0,100.0,0,False,0,up,0.16666666666666666,20,0,0.34106289996998385,0.34106289996998385,0.5528288999921642,True,far-rnd0,8,4,3,2.5,1,up,8,0
48,1,True,2.5081983999698423,33.0,100.0,800.0,5,True,2,up,0.16666666666666666,16,0.08849779999582097,0.29851910000434145,0.3870169000001624,2.0614071000018157,False,far-080,8,1,0,0.625,1,up,8,0
49,2,True,1.7602652999921702,33.0,100.0,800.0,10,True,2,down,0.16666666666666666,32,0.17078839999157935,0.691423499956727,0.8622118999483064,0.4550454000127502,True,far-160,9,3,3,1.875,1,down,4,0
50,1,True,1.909317099954933,33.0,100.0,800.0,0,True,2,up,0.16666666666666666,36,0,0.6047728999983519,0.6047728999983519,0.5921723999781534,True,far-000,9,6,4,3.75,1,up,8,0
51,3,True,1.9300685999915004,33.0,33.0,100.0,0,False,0,up,0.16666666666666666,20,0,0.3426212000194937,0.3426212000194937,0.6372671000426635,True,far-rnd0,9,5,4,3.125,1,up,8,0
52,2,True,2.5350379000301473,33.0,50.0,100.0,0,True,1,up,0.16666666666666666,28,0,0.4793673999956809,0.4793673999956809,2.572664099978283,True,far-rnd1,9,3,3,1.875,1,up,8,0
53,3,True,1.6123516999650747,33.0,800.0,100.0,0,True,3,up,0.16666666666666666,36,0,0.6099928000476211,0.6099928000476211,1.9681020000134595,False,far-rnd3,9,6,3,3.75,1,up,8,0
54,1,True,4.400775499991141,33.0,100.0,800.0,5,True,2,up,0.16666666666666666,16,0.0888165999785997,0.3058512000134215,0.3946677999920212,1.2440291999955662,False,far-080,9,2,0,1.25,1,up,8,0
55,1,True,2.166479800012894,33.0,800.0,100.0,0,True,3,up,0.16666666666666666,36,0,0.6024259999976493,0.6024259999976493,1.2438480000128038,False,far-rnd3,10,7,3,4.375,1,up,8,0
56,1,True,4.218173900037073,33.0,100.0,800.0,0,True,2,up,0.16666666666666666,36,0,0.613592499983497,0.613592499983497,0.7601303000119515,True,far-000,10,7,5,4.375,1,up,8,0
57,1,True,2.5848365999991074,33.0,100.0,800.0,5,True,2,up,0.16666666666666666,24,0.09399459999985993,0.43311460001859814,0.5271092000184581,1.0293383999960497,False,far-080,10,1,0,0.625,1,up,8,0
58,2,True,1.4211722000036389,33.0,33.0,100.0,0,False,0,up,0.16666666666666666,20,0,0.33832479995908216,0.33832479995908216,0.8052077000029385,True,far-rnd0,10,6,5,3.75,1,up,8,0
59,1,True,1.8025041000219062,33.0,100.0,800.0,10,True,2,down,0.16666666666666666,28,0.17339130002073944,0.5024744999827817,0.6758658000035211,0.6846755999722518,True,far-160,10,1,1,0.625,1,down,4,0
60,2,True,1.1085563999949954,33.0,50.0,100.0,0,True,1,down,0.16666666666666666,24,0,0.45812799996929243,0.45812799996929243,0.7229721999610774,True,far-rnd1,10,1,1,0.625,1,down,4,0
61,2,True,2.9207087999675423,33.0,100.0,800.0,10,True,2,down,0.16666666666666666,28,0.16901210002833977,0.49642949999542907,0.6654416000237688,1.3855436999583617,False,far-160,11,2,1,1.25,1,down,4,0
62,1,True,2.9505414000013843,33.0,100.0,800.0,0,True,2,up,0.16666666666666666,36,0,0.6126727000228129,0.6126727000228129,1.3371688000042923,False,far-000,11,8,5,5.0,1,up,8,0
63,2,True,1.2274482999928296,33.0,50.0,100.0,0,True,1,down,0.16666666666666666,24,0,0.4085942000383511,0.4085942000383511,0.600383100041654,True,far-rnd1,11,2,2,1.25,1,down,4,0
64,2,True,2.8058147999690846,33.0,33.0,100.0,0,False,0,down,0.16666666666666666,16,0,0.2781853000051342,0.2781853000051342,0.6615685000433587,True,far-rnd0,11,1,1,0.625,1,down,4,0
65,4,True,1.1143928000237793,33.0,100.0,800.0,5,True,2,up,0.16666666666666666,24,0.10690409998642281,0.4354487999808043,0.5423528999672271,0.8903995999717154,False,far-080,11,2,0,1.25,1,up,8,0
66,1,True,1.9179374999948777,33.0,800.0,100.0,0,True,3,up,0.16666666666666666,44,0,0.7355306999525055,0.7355306999525055,1.4538678000099026,False,far-rnd3,11,1,0,0.625,1,up,8,0
67,3,True,2.150467299972661,33.0,50.0,100.0,0,True,1,down,0.16666666666666666,24,0,0.42174690001411363,0.42174690001411363,0.6520521999918856,True,far-rnd1,12,3,3,1.875,1,down,4,0
68,1,True,3.6511676000081934,33.0,800.0,100.0,0,True,3,up,0.16666666666666666,44,0,0.7355901999981143,0.7355901999981143,3.830657100013923,False,far-rnd3,12,2,0,1.25,1,up,8,0
69,2,True,3.613515799981542,33.0,100.0,800.0,5,True,2,up,0.16666666666666666,40,0.0971578000462614,0.6844609000254422,0.7816187000717036,0.5218856999999844,True,far-080,12,1,1,0.625,1,up,16,0
70,4,True,1.4442013000370935,33.0,100.0,800.0,10,True,2,down,0.16666666666666666,28,0.18187339999713004,0.5048821999807842,0.6867555999779142,0.6714290999807417,True,far-160,12,3,2,1.875,1,down,4,0
71,1,True,2.589448899962008,33.0,33.0,100.0,0,False,0,down,0.16666666666666666,16,0,0.2729236999875866,0.2729236999875866,1.2750592000083998,False,far-rnd0,12,2,1,1.25,1,down,4,0
72,2,True,1.314230400021188,33.0,100.0,800.0,0,True,2,up,0.16666666666666666,36,0,0.6166983000002801,0.6166983000002801,0.6984041000250727,True,far-000,12,9,6,5.625,1,up,8,1
73,1,True,2.775840000016615,33.0,100.0,800.0,5,True,2,up,0.16666666666666666,40,0.08886870002606884,0.6874042000272311,0.7762729000533,0.5115506000001915,True,far-080,13,2,2,1.25,1.0,up,16,0
74,2,True,1.8364265999989584,33.0,100.0,800.0,0,True,2,up,0.16666666666666666,36,0,0.6128324000164866,0.6128324000164866,0.9473199000349268,False,far-000,13,10,6,6.25,1,up,8,1
75,1,True,1.5652147000073455,33.0,33.0,100.0,0,False,0,down,0.16666666666666666,16,0,0.2697289999923669,0.2697289999923669,1.686295900028199,False,far-rnd0,13,3,1,1.875,1,down,4,0
76,2,True,1.4239794999593869,33.0,800.0,100.0,0,True,3,up,0.16666666666666666,52,0,0.8609676000196487,0.8609676000196487,0.8865622999728657,False,far-rnd3,13,1,0,0.625,1,up,8,0
77,1,True,2.3544065000023693,33.0,100.0,800.0,10,True,2,down,0.16666666666666666,28,0.17324380000354722,0.49426589999347925,0.6675096999970265,0.5374660000088625,True,far-160,13,4,3,2.5,1,down,4,0
78,4,True,3.6676006999914534,33.0,50.0,100.0,0,True,1,down,0.16666666666666666,20,0,0.35498240002198145,0.35498240002198145,0.6223673000349663,True,far-rnd1,13,1,1,0.625,1,down,4,0
79,1,True,2.3636954000103287,33.0,100.0,800.0,5,True,2,up,0.16666666666666666,40,0.0932232000050135,0.6817904000054114,0.7750136000104249,0.7475304999970831,True,far-080,14,3,3,1.875,1.0,up,16,0
80,3,True,2.072955199982971,33.0,50.0,100.0,0,True,1,down,0.16666666666666666,20,0,0.36163949995534495,0.36163949995534495,0.6469045999692753,True,far-rnd1,14,2,2,1.25,1,down,4,0
81,3,True,4.004730999993626,33.0,800.0,100.0,0,True,3,up,0.16666666666666666,52,0,0.8638612999930046,0.8638612999930046,1.8628131999867037,True,far-rnd3,14,2,1,1.25,1,up,8,0
82,1,True,2.5061656000325456,33.0,100.0,800.0,0,True,2,up,0.16666666666666666,36,0,0.6075169999967329,0.6075169999967329,0.6613220000290312,True,far-000,14,11,7,6.875,1,up,8,1
83,4,True,0.9464699000236578,33.0,33.0,100.0,0,False,0,down,0.16666666666666666,16,0,0.2867079999996349,0.2867079999996349,2.0650589000433683,False,far-rnd0,14,4,1,2.5,1,down,4,0
84,3,True,0.9329709999728948,33.0,100.0,800.0,10,True,2,down,0.16666666666666666,28,0.17413050000322983,0.49759679997805506,0.6717272999812849,6.632918299990706,True,far-160,14,5,4,3.125,1,down,4,0
85,1,True,4.7293731000390835,33.0,800.0,100.0,0,True,3,up,0.16666666666666666,52,0,0.8587859999970533,0.8587859999970533,1.2838426000089385,False,far-rnd3,15,3,1,1.875,1,up,8,0
86,2,True,2.385727900022175,33.0,50.0,100.0,0,True,1,down,0.16666666666666666,20,0,0.3537186000030488,0.3537186000030488,0.7694567000144161,True,far-rnd1,15,3,3,1.875,1,down,4,0
87,3,True,2.0463026000070386,33.0,100.0,800.0,5,True,2,down,0.16666666666666666,32,0.09883680002531037,0.5668721999973059,0.6657090000226162,2.2332053999998607,False,far-080,15,1,0,0.625,0.5,down,8,0
88,1,True,2.750196299981326,33.0,100.0,800.0,10,True,2,down,0.16666666666666666,28,0.16772229998605326,0.4973783000023104,0.6651005999883637,2.946664699993562,False,far-160,15,6,4,3.75,1,down,4,0
89,4,True,1.8252748000086285,33.0,33.0,100.0,0,False,0,up,0.16666666666666666,18,0,0.32352860004175454,0.32352860004175454,1.1568202000344172,True,far-rnd0,15,1,1,0.625,1,up,2,0
90,1,True,1.9460821999819018,33.0,100.0,800.0,0,True,2,up,0.16666666666666666,36,0,0.7460235999897122,0.7460235999897122,0.6800468000001274,True,far-000,15,12,8,7.5,1,up,8,1
91,2,True,1.7583307000459172,33.0,50.0,100.0,0,True,1,down,0.16666666666666666,16,0,0.2835308000212535,0.2835308000212535,1.3742231000214815,False,far-rnd1,16,1,0,0.625,1,down,4,0
92,2,True,2.335672299959697,33.0,33.0,100.0,0,False,0,up,0.16666666666666666,18,0,0.3076858999556862,0.3076858999556862,1.2772832000046037,True,far-rnd0,16,2,2,1.25,2,up,2,0
93,2,True,3.5243627000018023,33.0,100.0,800.0,0,True,2,up,0.16666666666666666,36,0,0.7932124999933876,0.7932124999933876,0.6098280000151135,True,far-000,16,13,9,8.125,1,up,8,1
94,3,True,1.5246566999703646,33.0,800.0,100.0,0,True,3,up,0.16666666666666666,52,0,0.8711079000495374,0.8711079000495374,2.0278438999666832,False,far-rnd3,16,4,1,2.5,1,up,8,0
95,1,True,2.475044999970123,33.0,100.0,800.0,10,True,2,down,0.16666666666666666,28,0.16804169997340068,0.5047047999687493,0.67274649994215,3.022237600001972,False,far-160,16,7,4,4.375,1,down,4,0
96,3,True,1.6828376000048593,33.0,100.0,800.0,5,True,2,down,0.16666666666666666,32,0.10286359995370731,0.5752601999556646,0.6781237999093719,2.9188514999696054,True,far-080,16,2,1,1.25,1,down,8,0
97,3,True,4.285947599972133,33.0,33.0,100.0,0,False,0,up,0.16666666666666666,18,0,0.3096131000202149,0.3096131000202149,0.734443299996201,True,far-rnd0,17,3,3,1.875,2,up,2,0
98,4,True,2.6522559999721125,33.0,100.0,800.0,10,True,2,down,0.16666666666666666,28,0.17932570003904402,0.5110183000215329,0.690344000060577,1.3164202999905683,True,far-160,17,8,5,5.0,1,down,4,0
99,2,True,1.7508355000172742,33.0,800.0,100.0,0,True,3,up,0.16666666666666666,68,0,1.1165964999818243,1.1165964999818243,1.028515400015749,True,far-rnd3,17,1,1,0.625,1,up,16,0
100,3,True,2.104996099951677,33.0,100.0,800.0,0,True,2,up,0.16666666666666666,36,0,0.6240675000008196,0.6240675000008196,0.580660599982366,True,far-000,17,14,10,8.75,1,up,8,1
101,3,True,1.0485800000024028,33.0,50.0,100.0,0,True,1,down,0.16666666666666666,16,0,0.29525239998474717,0.29525239998474717,1.229126800026279,True,far-rnd1,17,2,1,1.25,1,down,4,0
102,1,True,1.7165694999857806,33.0,100.0,800.0,5,True,2,down,0.16666666666666666,32,0.08904480002820492,0.5507990999612957,0.6398438999895006,1.1319889000151306,False,far-080,17,3,1,1.875,1,down,8,0
103,2,True,1.2410860999953002,33.0,33.0,100.0,0,False,0,up,0.16666666666666666,18,0,0.30563670000992715,0.30563670000992715,0.7209156000171788,True,far-rnd0,18,4,4,2.5,2,up,2,0
104,2,True,0.9743633000180125,33.0,100.0,800.0,5,True,2,down,0.16666666666666666,32,0.09246129996608943,0.5640601000050083,0.6565213999710977,1.3618094000266865,True,far-080,18,4,2,2.5,1,down,8,0
105,1,True,1.7507515999604948,33.0,100.0,800.0,10,True,2,down,0.16666666666666666,28,0.1758463000296615,0.4929475999670103,0.6687938999966718,1.6318341000005603,False,far-160,18,9,5,5.625,1,down,4,1
106,2,True,1.5460800000000745,33.0,50.0,100.0,0,True,1,down,0.16666666666666666,16,0,0.2863945999997668,0.2863945999997668,0.6368229999789037,True,far-rnd1,18,3,2,1.875,1,down,4,0
107,1,True,1.2304101000190713,33.0,800.0,100.0,0,True,3,up,0.16666666666666666,68,0,1.116385800007265,1.116385800007265,1.869272199983243,False,far-rnd3,18,2,1,1.25,1.0,up,16,0
108,3,True,1.1167620999622159,33.0,100.0,800.0,0,True,2,down,0.16666666666666666,34,0,0.5922668999992311,0.5922668999992311,1.0532788999844342,False,far-000,18,1,0,0.625,1,down,2,0
109,3,True,1.8102042999817058,33.0,100.0,800.0,0,True,2,down,0.16666666666666666,34,0,0.6324257000233047,0.6324257000233047,0.778366599988658,True,far-000,19,2,1,1.25,2,down,2,0
110,1,True,2.6662072999752127,33.0,33.0,100.0,0,False,0,up,0.16666666666666666,18,0,0.3011119000148028,0.3011119000148028,0.7756828000419773,True,far-rnd0,19,5,5,3.125,2,up,2,0
111,1,True,1.3387057000072673,33.0,100.0,800.0,10,True,2,down,0.16666666666666666,28,0.17235960002290085,0.5003028999781236,0.6726625000010245,1.7120980999898165,False,far-160,19,10,5,6.25,1,down,4,1
112,3,True,1.9988864999613725,33.0,50.0,100.0,0,True,1,down,0.16666666666666666,16,0,0.29457389999879524,0.29457389999879524,0.8683631000458263,False,far-rnd1,19,4,2,2.5,1,down,4,0
113,1,True,1.9383296000305563,33.0,800.0,100.0,0,True,3,up,0.16666666666666666,68,0,1.114161100005731,1.114161100005731,0.530709599959664,True,far-rnd3,19,3,2,1.875,1.0,up,16,0
114,1,True,2.6649884000071324,33.0,100.0,800.0,5,True,2,down,0.16666666666666666,32,0.09124199999496341,0.5500652000191621,0.6413072000141256,0.7393637000350282,True,far-080,19,5,3,3.125,1,down,8,0
115,1,True,1.4400880999746732,33.0,50.0,100.0,0,True,1,down,0.16666666666666666,16,0,0.2780701000010595,0.2780701000010595,1.0017494999920018,True,far-rnd1,20,5,3,3.125,1,down,4,0
116,5,True,3.7187913000234403,33.0,33.0,100.0,0,False,0,up,0.16666666666666666,18,0,0.32430549996206537,0.32430549996206537,0.597273999999743,True,far-rnd0,20,6,6,3.75,2,up,2,0
117,2,True,1.4591814000159502,33.0,100.0,800.0,0,True,2,down,0.16666666666666666,34,0,0.5814365000114776,0.5814365000114776,2.393333000014536,False,far-000,20,3,1,1.875,2,down,2,0
118,1,True,6.668082699994557,33.0,800.0,100.0,0,True,3,up,0.16666666666666666,68,0,1.1142609000089578,1.1142609000089578,0.6579961000243202,True,far-rnd3,20,4,3,2.5,0.5,up,16,0
119,4,True,3.9399076999980025,33.0,100.0,800.0,5,True,2,down,0.16666666666666666,32,0.10227620002115145,0.6405983000295237,0.7428745000506751,0.49570530001074076,True,far-080,20,6,4,3.75,1,down,8,0
120,1,True,1.9604976999689825,33.0,100.0,800.0,10,True,2,up,0.16666666666666666,29,0.17182150000007823,0.506675600016024,0.6784971000161022,0.533796000003349,True,far-160,20,1,1,0.625,1,up,1,0
121,1,True,2.2811529000173323,33.0,100.0,800.0,10,True,2,up,0.16666666666666666,29,0.1699015999911353,0.5114049999974668,0.6813065999886021,0.7459989000344649,True,far-160,21,2,2,1.25,2,up,1,0
122,1,True,2.0987665000138804,33.0,100.0,800.0,0,True,2,down,0.16666666666666666,34,0,0.5811031999764964,0.5811031999764964,0.8340535000315867,True,far-000,21,4,2,2.5,2,down,2,0
123,3,True,1.98532440001145,33.0,100.0,800.0,5,True,2,down,0.16666666666666666,32,0.09320719999959692,0.5600077999988571,0.653214999998454,0.6032330000307411,True,far-080,21,7,5,4.375,1,down,8,0
124,2,True,2.6449027999769896,33.0,33.0,100.0,0,False,0,down,0.16666666666666666,17,0,0.2931321000214666,0.2931321000214666,0.7012893999926746,True,far-rnd0,21,1,1,0.625,2,down,1,0
125,2,True,1.9081743000424467,33.0,800.0,100.0,0,True,3,up,0.16666666666666666,68,0,1.1204627999686636,1.1204627999686636,0.7815701000508852,False,far-rnd3,21,5,3,3.125,0.5,up,16,0
126,2,True,1.3093905000132509,33.0,50.0,100.0,0,True,1,down,0.16666666666666666,16,0,0.29253589996369556,0.29253589996369556,1.1821212000213563,True,far-rnd1,21,6,4,3.75,1,down,4,0
127,2,True,1.6793155000195839,33.0,100.0,800.0,5,True,2,down,0.16666666666666666,32,0.09021469997242093,0.7002253999817185,0.7904400999541394,0.5730228999746032,True,far-080,22,8,6,5.0,1,down,8,0
128,1,True,1.6375379000091925,33.0,50.0,100.0,0,True,1,down,0.16666666666666666,16,0,0.28402189997723326,0.28402189997723326,0.6902354000485502,False,far-rnd1,22,7,4,4.375,1,down,4,0
129,2,True,1.4046539000119083,33.0,800.0,100.0,0,True,3,up,0.16666666666666666,68,0,1.1234538999851793,1.1234538999851793,1.6862760000512935,True,far-rnd3,22,6,4,3.75,0.5,up,16,0
130,1,True,2.276511700008996,33.0,100.0,800.0,0,True,2,down,0.16666666666666666,34,0,0.5761741999885999,0.5761741999885999,0.9149971000151709,False,far-000,22,5,2,3.125,2,down,2,0
131,4,True,1.6291062000091188,33.0,100.0,800.0,10,True,2,up,0.16666666666666666,29,0.18222299998160452,0.5245522999903187,0.7067752999719232,0.42441159998998046,True,far-160,22,3,3,1.875,2,up,1,0
132,3,True,4.547340200049803,33.0,33.0,100.0,0,False,0,down,0.16666666666666666,17,0,0.30112780001945794,0.30112780001945794,0.9396585000213236,False,far-rnd0,22,2,1,1.25,2,down,1,0
133,2,True,2.5575485000154004,33.0,800.0,100.0,0,True,3,up,0.16666666666666666,68,0,1.1224775000009686,1.1224775000009686,1.2484244999941438,True,far-rnd3,23,7,5,4.375,0.5,up,16,0
134,1,True,3.333228399977088,33.0,100.0,800.0,0,True,2,down,0.16666666666666666,34,0,0.5792307000374421,0.5792307000374421,0.6539318999857642,False,far-000,23,6,2,3.75,2,down,2,0
135,1,True,2.1836683999863453,33.0,100.0,800.0,10,True,2,up,0.16666666666666666,29,0.17012189998058602,0.5114973000017926,0.6816191999823786,0.5975075999740511,True,far-160,23,4,4,2.5,2,up,1,0
136,1,True,3.7625402999692596,33.0,33.0,100.0,0,False,0,down,0.16666666666666666,17,0,0.28418879996752366,0.28418879996752366,1.1347071999916807,True,far-rnd0,23,3,2,1.875,2,down,1,0
137,3,True,4.909431400010362,33.0,50.0,100.0,0,True,1,down,0.16666666666666666,16,0,0.2903416999615729,0.2903416999615729,0.7300275999587029,True,far-rnd1,23,8,5,5.0,1,down,4,0
138,1,True,1.764947499963455,33.0,100.0,800.0,5,True,2,down,0.16666666666666666,32,0.09199220000300556,0.5560934999957681,0.6480856999987736,1.0048912999918684,True,far-080,23,9,7,5.625,1,down,8,1
139,2,True,0.9291005999548361,33.0,800.0,100.0,0,True,3,down,0.16666666666666666,60,0,0.9895244000363164,0.9895244000363164,0.5911542000249028,True,far-rnd3,24,1,1,0.625,0.5,down,8,0
140,4,True,1.647152499994263,33.0,100.0,800.0,0,True,2,down,0.16666666666666666,34,0,0.5910323999705724,0.5910323999705724,1.0112563000293449,True,far-000,24,7,3,4.375,2,down,2,0
141,2,True,2.072829200013075,33.0,50.0,100.0,0,True,1,down,0.16666666666666666,16,0,0.4397099000052549,0.4397099000052549,0.5187368000042625,True,far-rnd1,24,9,6,5.625,1,down,4,1
142,1,True,1.8482867000275292,33.0,100.0,800.0,10,True,2,up,0.16666666666666666,29,0.17066599999088794,0.5075168999610469,0.6781828999519348,0.5490990999969654,True,far-160,24,5,5,3.125,2,up,1,0
143,1,True,2.1924275999772362,33.0,100.0,800.0,5,True,2,down,0.16666666666666666,28,0.08780119998846203,0.4973355000256561,0.5851367000141181,0.989000000001397,False,far-080,24,1,0,0.625,1,down,4,0
144,3,True,2.1924557000165805,33.0,33.0,100.0,0,False,0,down,0.16666666666666666,17,0,0.29613779997453094,0.29613779997453094,1.7576370000024326,True,far-rnd0,24,4,3,2.5,2,down,1,0
145,3,True,2.208195400016848,33.0,33.0,100.0,0,False,0,down,0.16666666666666666,17,0,0.3005103000323288,0.3005103000323288,0.6855910000158474,True,far-rnd0,25,5,4,3.125,2,down,1,0
146,1,True,2.0643064999603666,33.0,100.0,800.0,10,True,2,up,0.16666666666666666,29,0.17257380002411082,0.5199716999777593,0.6925455000018701,0.5266930000507273,True,far-160,25,6,6,3.75,2,up,1,0
147,2,True,2.2979669999913312,33.0,100.0,800.0,0,True,2,down,0.16666666666666666,34,0,0.5805679999757558,0.5805679999757558,1.2225276000099257,False,far-000,25,8,3,5.0,2,down,2,0
148,1,True,2.5733164999983273,33.0,50.0,100.0,0,True,1,down,0.16666666666666666,16,0,0.2808530000038445,0.2808530000038445,1.085497200023383,False,far-rnd1,25,10,6,6.25,1,down,4,1
149,4,True,1.583583700004965,33.0,800.0,100.0,0,True,3,down,0.16666666666666666,60,0,0.9998943999526091,0.9998943999526091,2.2123006000183523,False,far-rnd3,25,2,1,1.25,1,down,8,0
150,1,True,4.217082699993625,33.0,100.0,800.0,5,True,2,down,0.16666666666666666,28,0.09055600001011044,0.49656350002624094,0.5871195000363514,0.8640879999729805,False,far-080,25,2,0,1.25,1,down,4,0
151,1,True,3.795242899970617,33.0,800.0,100.0,0,True,3,down,0.16666666666666666,60,0,0.9894632000359707,0.9894632000359707,0.6084335999912582,True,far-rnd3,26,3,2,1.875,1,down,8,0
152,1,True,1.4155061999917962,33.0,50.0,100.0,0,True,1,down,0.16666666666666666,16,0,0.2881257999688387,0.2881257999688387,2.5855947000090964,True,far-rnd1,26,11,7,6.875,1,down,4,1
153,2,True,1.847964900021907,33.0,100.0,800.0,10,True,2,down,0.16666666666666666,28,0.17319540004245937,0.5108807000215165,0.6840761000639759,0.6843058000085875,True,far-160,26,1,1,0.625,2,down,1,0
154,3,True,1.4649943999829702,33.0,33.0,100.0,0,False,0,down,0.16666666666666666,17,0,0.2926280000247061,0.2926280000247061,0.6764523999881931,True,far-rnd0,26,6,5,3.75,2,down,1,0
155,3,True,3.5150701999664307,33.0,100.0,800.0,5,True,2,up,0.16666666666666666,30,0.09844100003829226,0.5436560999951325,0.6420971000334248,1.0251220000209287,False,far-080,26,1,0,0.625,1,up,2,0
156,2,True,2.2398391000460833,33.0,100.0,800.0,0,True,2,down,0.16666666666666666,34,0,0.5775801999843679,0.5775801999843679,0.750762699986808,True,far-000,26,9,4,5.625,2,down,2,1
157,3,True,1.465538899996318,33.0,100.0,800.0,5,True,2,up,0.16666666666666666,30,0.09554030001163483,0.5403083999990486,0.6358487000106834,0.5440395000041462,True,far-080,27,2,1,1.25,2,up,2,0
158,1,True,1.4914682999951765,33.0,100.0,800.0,10,True,2,down,0.16666666666666666,28,0.16864789999090135,0.4860972000169568,0.6547451000078581,0.5554663000511937,True,far-160,27,2,2,1.25,3,down,1,0
159,2,True,1.3881312999874353,33.0,800.0,100.0,0,True,3,down,0.16666666666666666,60,0,0.9962411999586038,0.9962411999586038,0.5840216999640688,True,far-rnd3,27,4,3,2.5,1,down,8,0
160,3,True,3.7065953999990597,33.0,100.0,800.0,0,True,2,down,0.16666666666666666,34,0,0.5892369999783114,0.5892369999783114,1.0406958000385202,False,far-000,27,10,4,6.25,2,down,2,1
161,2,True,1.9824166999896988,33.0,50.0,100.0,0,True,1,down,0.16666666666666666,16,0,0.28784750000340864,0.28784750000340864,1.7480145000154153,False,far-rnd1,27,12,7,7.5,1,down,4,1
162,2,True,2.3213905000011437,33.0,33.0,100.0,0,False,0,down,0.16666666666666666,17,0,0.2904309000005014,0.2904309000005014,0.46218500001123175,True,far-rnd0,27,7,6,4.375,2,down,1,0
163,2,True,2.200684400042519,33.0,100.0,800.0,0,True,2,up,0.16666666666666666,35,0,0.5985832000151277,0.5985832000151277,1.2906428999849595,True,far-000,28,1,1,0.625,2,up,1,0
164,4,True,3.191486799973063,33.0,100.0,800.0,5,True,2,up,0.16666666666666666,30,0.10258790000807494,0.5312886000028811,0.6338765000109561,0.5601180999656208,True,far-080,28,3,2,1.875,2,up,2,0
165,1,True,3.1598059000098146,33.0,100.0,800.0,10,True,2,down,0.16666666666666666,28,0.1685977000161074,0.4908180999918841,0.6594158000079915,0.8794812000123784,True,far-160,28,3,3,1.875,3,down,1,0
166,1,True,2.264946000010241,33.0,33.0,100.0,0,False,0,down,0.16666666666666666,17,0,0.2856504000374116,0.2856504000374116,2.920928700012155,True,far-rnd0,28,8,7,5.0,2,down,1,0
167,3,True,3.4543582999613136,33.0,50.0,100.0,0,True,1,down,0.16666666666666666,16,0,0.2904444999876432,0.2904444999876432,1.448594100016635,True,far-rnd1,28,13,8,8.125,1,down,4,1
168,1,True,2.5200329000363126,33.0,800.0,100.0,0,True,3,down,0.16666666666666666,60,0,0.9844863000325859,0.9844863000325859,0.8798740999773145,True,far-rnd3,28,5,4,3.125,1,down,8,0
169,2,True,2.797325399995316,33.0,33.0,100.0,0,False,0,down,0.16666666666666666,17,0,0.2899494000012055,0.2899494000012055,0.6047063000150956,True,far-rnd0,29,9,8,5.625,2,down,1,1
170,1,True,1.801152199972421,33.0,800.0,100.0,0,True,3,down,0.16666666666666666,60,0,0.9853795999661088,0.9853795999661088,0.8364386999746785,False,far-rnd3,29,6,4,3.75,1,down,8,0
171,1,True,3.0997568999882787,33.0,100.0,800.0,5,True,2,up,0.16666666666666666,30,0.08864339999854565,0.5210609000059776,0.6097043000045232,0.6871910999761894,True,far-080,29,4,3,2.5,2,up,2,0
172,4,True,1.7913087999913841,33.0,100.0,800.0,0,True,2,up,0.16666666666666666,35,0,0.6114156999974512,0.6114156999974512,0.8053590999916196,False,far-000,29,2,1,1.25,3,up,1,0
173,2,True,2.19975530001102,33.0,100.0,800.0,10,True,2,down,0.16666666666666666,28,0.1716076000011526,0.6172280999599025,0.7888356999610551,0.45803079998586327,True,far-160,29,4,4,2.5,3,down,1,0
174,2,True,1.8224143999977969,33.0,50.0,100.0,0,True,1,down,0.16666666666666666,16,0,0.2912231999798678,0.2912231999798678,1.106753000000026,False,far-rnd1,29,14,8,8.75,1,down,4,1
175,2,True,3.1952003000187688,33.0,33.0,100.0,0,False,0,down,0.16666666666666666,16,0,0.2759461000096053,0.2759461000096053,0.7056239999947138,True,far-rnd0,30,1,1,0.625,2,down,1,0
176,2,True,0.9771576999919489,33.0,100.0,800.0,10,True,2,down,0.16666666666666666,28,0.17060870002023876,0.5019745000172406,0.6725832000374794,0.7320781000307761,True,far-160,30,5,5,3.125,3,down,1,0
177,1,True,3.629016499966383,33.0,100.0,800.0,0,True,2,up,0.16666666666666666,35,0,0.592743499961216,0.592743499961216,0.671789699990768,False,far-000,30,3,1,1.875,3,up,1,0
178,3,True,1.8430446999846026,33.0,50.0,100.0,0,True,1,down,0.16666666666666666,16,0,0.2928954000235535,0.2928954000235535,1.2691627999884076,False,far-rnd1,30,15,8,9.375,1,down,4,1
179,1,True,2.3241776999784634,33.0,800.0,100.0,0,True,3,down,0.16666666666666666,60,0,0.9831027000327595,0.9831027000327595,2.545013199967798,False,far-rnd3,30,7,4,4.375,1,down,8,0
180,1,True,2.150113900017459,33.0,100.0,800.0,5,True,2,up,0.16666666666666666,30,0.08855159999802709,0.5258090999559499,0.614360699953977,3.031235700007528,True,far-080,30,5,4,3.125,2,up,2,0
181,2,True,1.5007526999688707,33.0,100.0,800.0,0,True,2,up,0.16666666666666666,35,0,0.5979236999992281,0.5979236999992281,0.8093770999694243,True,far-000,31,4,2,2.5,3,up,1,0
182,1,True,1.495869100035634,33.0,100.0,800.0,5,True,2,up,0.16666666666666666,30,0.09151739999651909,0.5308926000143401,0.6224100000108592,2.0694312999839894,True,far-080,31,6,5,3.75,2,up,2,0
183,1,True,3.2045312999980524,33.0,50.0,100.0,0,True,1,up,0.16666666666666666,17,0,0.31311400001868606,0.31311400001868606,0.6108043999993242,True,far-rnd1,31,1,1,0.625,1,up,1,0
184,1,True,1.5348087000311352,33.0,800.0,100.0,0,True,3,down,0.16666666666666666,60,0,0.9821944999857806,0.9821944999857806,1.0908044000389054,True,far-rnd3,31,8,5,5.0,1,down,8,0
185,3,True,1.7982056000037119,33.0,100.0,800.0,10,True,2,down,0.16666666666666666,28,0.17526440002257004,0.5100577999837697,0.6853222000063397,0.608009499963373,True,far-160,31,6,6,3.75,3,down,1,0
186,2,True,3.2365662999800406,33.0,33.0,100.0,0,False,0,down,0.16666666666666666,16,0,0.27570939995348454,0.27570939995348454,4.02622539998265,True,far-rnd0,31,2,2,1.25,3,down,1,0
187,3,True,2.2217567000188865,33.0,100.0,800.0,0,True,2,up,0.16666666666666666,35,0,0.6037398999906145,0.6037398999906145,0.608544200018514,True,far-000,32,5,3,3.125,3,up,1,0
188,1,True,1.6356465000426397,33.0,33.0,100.0,0,False,0,down,0.16666666666666666,16,0,0.27251260000048205,0.27251260000048205,1.144074899959378,False,far-rnd0,32,3,2,1.875,3,down,1,0
189,2,True,1.2722148000029847,33.0,800.0,100.0,0,True,3,down,0.16666666666666666,60,0,0.9891577999806032,0.9891577999806032,0.8174232000019401,False,far-rnd3,32,9,5,5.625,1,down,8,1
190,4,True,1.2438958999700844,33.0,50.0,100.0,0,True,1,up,0.16666666666666666,17,0,0.3117082000244409,0.3117082000244409,1.1335756999906152,True,far-rnd1,32,2,2,1.25,2,up,1,0
191,1,True,1.635157499986235,33.0,100.0,800.0,5,True,2,up,0.16666666666666666,30,0.09496249997755513,0.5268894999753684,0.6218519999529235,0.6171018999884836,True,far-080,32,7,6,4.375,2,up,2,0
192,1,True,1.6782182999886572,33.0,100.0,800.0,10,True,2,down,0.16666666666666666,28,0.17461899999761954,0.4881597000057809,0.6627787000034004,0.49087919999146834,True,far-160,32,7,7,4.375,3,down,1,0
193,1,True,2.422938100004103,33.0,100.0,800.0,10,True,2,down,0.16666666666666666,28,0.268353899999056,0.504474500019569,0.772828400018625,0.6190500000375323,True,far-160,33,8,8,5.0,3,down,1,0
194,1,True,1.6239321999601088,33.0,33.0,100.0,0,False,0,down,0.16666666666666666,16,0,0.27150720002828166,0.27150720002828166,1.9089088000473566,True,far-rnd0,33,4,3,2.5,3,down,1,0
195,4,True,1.5142733000102453,33.0,800.0,100.0,0,True,3,down,0.16666666666666666,60,0,0.9968768999679014,0.9968768999679014,0.680390499997884,True,far-rnd3,33,10,6,6.25,1,down,8,1
196,3,True,1.4149836000287905,33.0,100.0,800.0,0,True,2,up,0.16666666666666666,35,0,0.6018907999969088,0.6018907999969088,0.6563972000149079,True,far-000,33,6,4,3.75,3,up,1,0
197,1,True,1.8747522000339814,33.0,50.0,100.0,0,True,1,up,0.16666666666666666,17,0,0.2999251000001095,0.2999251000001095,0.70254579995526,True,far-rnd1,33,3,3,1.875,2,up,1,0
198,1,True,1.53469140001107,33.0,100.0,800.0,5,True,2,up,0.16666666666666666,30,0.09340160002466291,0.5266163000487722,0.6200179000734352,0.6798990999814123,True,far-080,33,8,7,5.0,2,up,2,0
199,3,True,1.4891798000317067,33.0,100.0,800.0,5,True,2,up,0.16666666666666666,30,0.10301190003519878,0.5299846999696456,0.6329966000048444,0.5444193999865092,True,far-080,34,9,8,5.625,2,up,2,1
200,3,True,1.6841311000171117,33.0,33.0,100.0,0,False,0,down,0.16666666666666666,16,0,0.28163670003414154,0.28163670003414154,1.4455111999996006,True,far-rnd0,34,5,4,3.125,3,down,1,0
201,2,True,1.7094303999911062,33.0,100.0,800.0,0,True,2,up,0.16666666666666666,35,0,0.6018563999678008,0.6018563999678008,1.8599717000033706,False,far-000,34,7,4,4.375,3,up,1,0
202,1,True,1.885652899974957,33.0,800.0,100.0,0,True,3,down,0.16666666666666666,60,0,0.9886552999960259,0.9886552999960259,5.642219500034116,False,far-rnd3,34,11,6,6.875,1,down,8,1
203,2,True,2.7854880999657325,33.0,50.0,100.0,0,True,1,up,0.16666666666666666,17,0,0.30098380002891645,0.30098380002891645,0.8563326000003144,False,far-rnd1,34,4,3,2.5,2,up,1,0
204,4,True,1.8852923000231385,33.0,100.0,800.0,0,True,2,up,0.16666666666666666,35,0,0.6121831000200473,0.6121831000200473,0.6981866999994963,True,far-000,35,8,5,5.0,3,up,1,0
205,1,True,2.0607004999765195,33.0,100.0,800.0,5,True,2,down,0.16666666666666666,29,0.09304810001049191,0.5131194000132382,0.6061675000237301,0.5532469999743626,True,far-080,35,1,1,0.625,2,down,1,0
206,3,True,1.9033442999934778,33.0,50.0,100.0,0,True,1,up,0.16666666666666666,17,0,0.30622830003267154,0.30622830003267154,0.6651784999994561,True,far-rnd1,35,5,4,3.125,2,up,1,0
207,1,True,1.8388741000089794,33.0,33.0,100.0,0,False,0,down,0.16666666666666666,16,0,0.27270529995439574,0.27270529995439574,0.8016790999681689,True,far-rnd0,35,6,5,3.75,3,down,1,0
208,1,True,1.9887048000236973,33.0,800.0,100.0,0,True,3,down,0.16666666666666666,60,0,0.9854646000312641,0.9854646000312641,1.2479655999923125,False,far-rnd3,35,12,6,7.5,1,down,8,1
209,2,True,1.5674078000010923,33.0,800.0,100.0,0,True,3,up,0.16666666666666666,62,0,1.017675400013104,1.017675400013104,0.6521912000025623,True,far-rnd3,36,1,1,0.625,1,up,2,0
210,1,True,3.026705399970524,33.0,33.0,100.0,0,False,0,down,0.16666666666666666,16,0,0.26935999997658655,0.26935999997658655,0.9363226999994367,False,far-rnd0,36,7,5,4.375,3,down,1,0
211,1,True,2.0555228000157513,33.0,50.0,100.0,0,True,1,up,0.16666666666666666,17,0,0.2970672000083141,0.2970672000083141,1.091308899980504,False,far-rnd1,36,6,4,3.75,2,up,1,0
212,2,True,1.3975341999903321,33.0,100.0,800.0,5,True,2,down,0.16666666666666666,29,0.09325239999452606,0.5086354999803007,0.6018878999748267,0.7128269999520853,True,far-080,36,2,2,1.25,3,down,1,0
213,3,True,2.6703831999911927,33.0,50.0,100.0,0,True,1,up,0.16666666666666666,17,0,0.3129674000083469,0.3129674000083469,0.5799925000173971,True,far-rnd1,37,7,5,4.375,2,up,1,0
214,1,True,2.0749019000213593,33.0,33.0,100.0,0,False,0,down,0.16666666666666666,16,0,0.26957259996561334,0.26957259996561334,1.3712705999496393,True,far-rnd0,37,8,6,5.0,3,down,1,0
215,3,True,2.4420153999817558,33.0,100.0,800.0,5,True,2,down,0.16666666666666666,29,0.09433729999000207,0.522109699959401,0.6164469999494031,0.6847030000062659,True,far-080,37,3,3,1.875,3,down,1,0
216,1,True,4.368312400009017,33.0,800.0,100.0,0,True,3,up,0.16666666666666666,62,0,1.103829100029543,1.103829100029543,1.0790295000188053,False,far-rnd3,37,2,1,1.25,2,up,2,0
217,3,True,1.592799299978651,33.0,100.0,800.0,5,True,2,down,0.16666666666666666,29,0.09888440003851429,0.520314600027632,0.6191990000661463,0.7036776000168175,True,far-080,38,4,4,2.5,3,down,1,0
218,4,True,1.4230897999950685,33.0,50.0,100.0,0,True,1,up,0.16666666666666666,17,0,0.3105253999819979,0.3105253999819979,0.8348690000129864,False,far-rnd1,38,8,5,5.0,2,up,1,0
219,1,True,1.942548299964983,33.0,800.0,100.0,0,True,3,up,0.16666666666666666,62,0,1.0176454000175,1.0176454000175,0.7774385000229813,True,far-rnd3,38,3,2,1.875,2,up,2,0
220,3,True,1.98273099999642,33.0,800.0,100.0,0,True,3,up,0.16666666666666666,62,0,1.02532680000877,1.02532680000877,0.3980477000004612,True,far-rnd3,39,4,3,2.5,2,up,2,0
221,3,True,4.160379700013436,33.0,100.0,800.0,5,True,2,down,0.16666666666666666,29,0.22698189999209717,0.5250265999929979,0.7520084999850951,0.7354796000290662,False,far-080,39,5,4,3.125,3,down,1,0
222,1,True,2.44884839997394,33.0,50.0,100.0,0,True,1,up,0.16666666666666666,17,0,0.2974382999818772,0.2974382999818772,0.9239761999924667,False,far-rnd1,39,9,5,5.625,2,up,1,1
223,1,True,1.2588199999881908,33.0,50.0,100.0,0,True,1,up,0.16666666666666666,17,0,0.2977445999858901,0.2977445999858901,1.7513323999592103,True,far-rnd1,40,10,6,6.25,2,up,1,1
224,2,True,2.1227836999460123,33.0,100.0,800.0,5,True,2,down,0.16666666666666666,29,0.09296310000354424,0.508689799986314,0.6016528999898583,0.7618755999719724,False,far-080,40,6,4,3.75,3,down,1,0
225,1,True,1.5007179999956861,33.0,800.0,100.0,0,True,3,up,0.16666666666666666,62,0,1.0187058000010438,1.0187058000010438,0.4453328999807127,True,far-rnd3,40,5,4,3.125,2,up,2,0
226,3,True,1.3150153000024147,33.0,50.0,100.0,0,True,1,up,0.16666666666666666,17,0,0.3063219000468962,0.3063219000468962,0.6170668000122532,True,far-rnd1,41,11,7,6.875,2,up,1,1
227,2,True,1.3291248999885283,33.0,100.0,800.0,5,True,2,down,0.16666666666666666,29,0.09402860002592206,0.5131866000010632,0.6072152000269853,0.75474820000818,False,far-080,41,7,4,4.375,3,down,1,0
228,2,True,1.6407676999806426,33.0,800.0,100.0,0,True,3,up,0.16666666666666666,62,0,1.0269454000517726,1.0269454000517726,0.3106651999987662,True,far-rnd3,41,6,5,3.75,2,up,2,0
229,3,True,1.502624900022056,33.0,50.0,100.0,0,True,1,up,0.16666666666666666,17,0,0.3142702999757603,0.3142702999757603,0.5732061000308022,True,far-rnd1,42,12,8,7.5,2,up,1,1
230,3,True,1.3510864999843761,33.0,100.0,800.0,5,True,2,down,0.16666666666666666,29,0.1992776000406593,0.5168844999861903,0.7161621000268497,0.5740876999916509,True,far-080,42,8,5,5.0,3,down,1,0
