trial,primeIter,primeCorrect,primeTime,primeDepth,stimDepth,extraDepth,driveFrames,nearToFar,diopters,direction,size,intensity,extraLatency,mainLatency,totalLatency,responseTime,correct,caseLabel,caseTrial,trialsAtStep,stepCorrect,expected,w,direction,stepsize,stepChange
1,1,True,2.3525565999443643,33.0,800.0,100.0,0,True,3,start,0.16666666666666666,60,0,0.9867037999792956,0.9867037999792956,0.6674005999811925,True,far-rnd3,1,1,1,0.625,0.5,start,16,0
2,1,True,1.8179624999756925,33.0,100.0,800.0,0,True,2,start,0.16666666666666666,60,0,0.9933992000296712,0.9933992000296712,0.7904900999856181,True,far-000,1,1,1,0.625,0.5,start,16,0
3,2,True,1.139062600035686,33.0,100.0,800.0,10,True,2,start,0.16666666666666666,60,0.17853089998243377,1.0042825000127777,1.1828133999952115,0.32860409998102114,True,far-160,1,1,1,0.625,0.5,start,16,0
4,1,True,1.6369622999918647,33.0,33.0,100.0,0,False,0,start,0.16666666666666666,60,0,0.9737827000208199,0.9737827000208199,0.23105020000366494,True,far-rnd0,1,1,1,0.625,0.5,start,16,0
5,1,True,1.733654999989085,33.0,50.0,100.0,0,True,1,start,0.16666666666666666,60,0,0.9918923999648541,0.9918923999648541,0.18438539997441694,True,far-rnd1,1,1,1,0.625,0.5,start,16,0
6,1,True,1.5470357000012882,33.0,100.0,800.0,5,True,2,start,0.16666666666666666,60,0.0952652000123635,1.0087289999937639,1.1039942000061274,0.22239569999510422,True,far-080,1,1,1,0.625,0.5,start,16,0
7,2,True,1.2676182999857701,33.0,800.0,100.0,0,True,3,start,0.16666666666666666,44,0,0.7342714999685995,0.7342714999685995,1.0507106000441127,False,far-rnd3,2,1,0,0.625,1.0,start,16,0
8,1,True,1.9289527999935672,33.0,100.0,800.0,0,True,2,start,0.16666666666666666,44,0,0.7404262999771163,0.7404262999771163,0.5056379000307061,True,far-000,2,1,1,0.625,1.0,start,16,0
9,2,True,1.296663000015542,33.0,100.0,800.0,5,True,2,start,0.16666666666666666,44,0.09379479999188334,0.7482586999540217,0.8420534999459051,0.337831599987112,True,far-080,2,1,1,0.625,1.0,start,16,0
10,1,True,1.5289384000352584,33.0,100.0,800.0,10,True,2,start,0.16666666666666666,44,0.17162749997805804,0.747554500005208,0.919181999983266,0.4056699999491684,True,far-160,2,1,1,0.625,1.0,start,16,0
11,1,True,1.4141094000078738,33.0,33.0,100.0,0,False,0,start,0.16666666666666666,44,0,0.7199774999753572,0.7199774999753572,0.4393637000466697,True,far-rnd0,2,1,1,0.625,1.0,start,16,0
12,2,True,1.9080535999964923,33.0,50.0,100.0,0,True,1,start,0.16666666666666666,44,0,0.7399165999959223,0.7399165999959223,0.47877609997522086,True,far-rnd1,2,1,1,0.625,1.0,start,16,0
13,2,True,1.0676165000186302,33.0,100.0,800.0,5,True,2,start,0.16666666666666666,28,0.09101530001498759,0.500622299965471,0.5916375999804586,1.102433399995789,False,far-080,3,1,0,0.625,1.0,start,16,0
14,1,True,2.0704125000047497,33.0,800.0,100.0,0,True,3,start,0.16666666666666666,44,0,0.7300643000053242,0.7300643000053242,0.9712711999891326,False,far-rnd3,3,2,0,1.25,1.0,start,16,0
15,1,True,3.482976700004656,33.0,50.0,100.0,0,True,1,start,0.16666666666666666,28,0,0.4697272999910638,0.4697272999910638,0.6685648999991827,True,far-rnd1,3,1,1,0.625,1.0,start,16,0
16,3,True,1.3241955999983475,33.0,100.0,800.0,0,True,2,start,0.16666666666666666,28,0,0.49476739997044206,0.49476739997044206,0.8294969999697059,False,far-000,3,1,0,0.625,1.0,start,16,0
17,1,True,1.334412899974268,33.0,100.0,800.0,10,True,2,start,0.16666666666666666,28,0.17465850000735372,0.5007857999880798,0.6754442999954335,0.4876298999879509,True,far-160,3,1,1,0.625,1.0,start,16,0
18,1,True,1.4583156000007875,33.0,33.0,100.0,0,False,0,start,0.16666666666666666,28,0,0.46295469999313354,0.46295469999313354,0.43644650001078844,True,far-rnd0,3,1,1,0.625,1.0,start,16,0
19,2,True,1.1802934000152163,33.0,800.0,100.0,0,True,3,up,0.16666666666666666,52,0,0.8660214999690652,0.8660214999690652,0.6351330999750644,False,far-rnd3,4,1,0,0.625,0.5,up,8,0
20,3,True,0.8616428999812342,33.0,50.0,100.0,0,True,1,start,0.16666666666666666,12,0,0.2312847999855876,0.2312847999855876,0.9689726999495178,True,far-rnd1,4,1,1,0.625,0.5,start,16,0
21,1,True,1.1422983999946155,33.0,100.0,800.0,5,True,2,up,0.16666666666666666,36,0.0883081000065431,0.6178885000408627,0.7061966000474058,0.5549486000090837,True,far-080,4,1,1,0.625,0.5,up,8,0
22,1,True,1.7141349000157788,33.0,100.0,800.0,0,True,2,up,0.16666666666666666,36,0,0.6081653999863192,0.6081653999863192,0.6155535000143573,True,far-000,4,1,1,0.625,0.5,up,8,0
23,2,True,1.1570303000044078,33.0,33.0,100.0,0,False,0,start,0.16666666666666666,12,0,0.20855680003296584,0.20855680003296584,0.6639456999837421,True,far-rnd0,4,1,1,0.625,0.5,start,16,0
24,3,True,1.614386299974285,33.0,100.0,800.0,10,True,2,start,0.16666666666666666,12,0.1755227000103332,0.24629909999202937,0.4218218000023626,0.8842508000088856,False,far-160,4,1,0,0.625,0.5,start,16,0
25,1,True,1.5331161000067368,33.0,100.0,800.0,10,True,2,up,0.16666666666666666,20,0.17229729995597154,0.36431749997427687,0.5366147999302484,0.9367846999666654,False,far-160,5,1,0,0.625,0.5,up,8,0
26,3,True,1.1664782000007108,33.0,800.0,100.0,0,True,3,up,0.16666666666666666,52,0,0.8637005999917164,0.8637005999917164,0.7376051000319421,True,far-rnd3,5,2,1,1.25,1,up,8,0
27,1,True,1.5953351000207476,33.0,100.0,800.0,5,True,2,up,0.16666666666666666,36,0.0904115000157617,0.622712499985937,0.7131240000016987,0.6647729999967851,True,far-080,5,2,2,1.25,1,up,8,0
28,1,True,1.39784360001795,33.0,50.0,100.0,0,True,1,start,0.16666666666666666,0,0,0.027539700036868453,0.027539700036868453,1.1426828000112437,False,far-rnd1,5,1,0,0.625,0.5,start,16,0
29,2,True,1.721087699988857,33.0,100.0,800.0,0,True,2,up,0.16666666666666666,36,0,0.6167756000068039,0.6167756000068039,0.7504485000390559,True,far-000,5,2,2,1.25,1,up,8,0
30,3,True,1.4644033999647945,33.0,33.0,100.0,0,False,0,start,0.16666666666666666,0,0,0.023712299996986985,0.023712299996986985,0.999033700034488,False,far-rnd0,5,1,0,0.625,0.5,start,16,0
31,2,True,1.6460845000110567,33.0,100.0,800.0,0,True,2,up,0.16666666666666666,36,0,0.6210101000033319,0.6210101000033319,0.7169699000078253,True,far-000,6,3,3,1.875,1,up,8,0
32,1,True,1.400181100005284,33.0,33.0,100.0,0,False,0,up,0.16666666666666666,8,0,0.1426458999630995,0.1426458999630995,0.9103227999876253,True,far-rnd0,6,1,1,0.625,0.5,up,8,0
33,3,True,2.367518100014422,33.0,50.0,100.0,0,True,1,up,0.16666666666666666,8,0,0.1647897000075318,0.1647897000075318,1.1109531999682076,False,far-rnd1,6,1,0,0.625,0.5,up,8,0
34,2,True,1.6361652999767102,33.0,100.0,800.0,10,True,2,up,0.16666666666666666,20,0.17084229999454692,0.37349029997130856,0.5443325999658555,1.3267411999986507,False,far-160,6,2,0,1.25,1,up,8,0
35,1,True,1.5073719000210986,33.0,100.0,800.0,5,True,2,up,0.16666666666666666,36,0.09087169996928424,0.6282618999830447,0.719133599952329,0.702051299973391,True,far-080,6,3,3,1.875,1,up,8,0
36,4,True,1.5853167999885045,33.0,800.0,100.0,0,True,3,up,0.16666666666666666,52,0,0.8736384999938309,0.8736384999938309,1.59860149997985,False,far-rnd3,6,3,1,1.875,1,up,8,0
37,2,True,0.9783498999895528,33.0,100.0,800.0,5,True,2,down,0.16666666666666666,32,0.097198799951002,0.5607315999804996,0.6579303999315016,1.0886910999543034,True,far-080,7,1,1,0.625,1,down,4,0
38,3,True,0.7122100999695249,33.0,100.0,800.0,10,True,2,up,0.16666666666666666,28,0.17498169996542856,0.5134238000027835,0.6884054999682121,0.6838187000248581,True,far-160,7,1,1,0.625,1,up,8,0
39,2,True,1.1186205000267364,33.0,33.0,100.0,0,False,0,up,0.16666666666666666,8,0,0.1462112000444904,0.1462112000444904,0.7717736000195146,False,far-rnd0,7,2,1,1.25,1,up,8,0
40,1,True,1.9240632000146434,33.0,50.0,100.0,0,True,1,up,0.16666666666666666,8,0,0.15384620003169402,0.15384620003169402,1.1289650999824516,False,far-rnd1,7,2,0,1.25,1,up,8,0
41,2,True,2.106536400038749,33.0,800.0,100.0,0,True,3,up,0.16666666666666666,52,0,0.8626848999992944,0.8626848999992944,1.2684441999881528,False,far-rnd3,7,4,1,2.5,1,up,8,0
42,1,True,1.7286810000077821,33.0,100.0,800.0,0,True,2,down,0.16666666666666666,32,0,0.5476165000000037,0.5476165000000037,0.7592795999953523,True,far-000,7,1,1,0.625,1,down,4,0
43,2,True,0.9991957999882288,33.0,33.0,100.0,0,False,0,up,0.16666666666666666,8,0,0.14318509999429807,0.14318509999429807,0.770973899983801,True,far-rnd0,8,3,2,1.875,1,up,8,0
44,2,True,2.168464499991387,33.0,100.0,800.0,10,True,2,up,0.16666666666666666,28,0.17021479998948053,0.4954884999897331,0.6657032999792136,0.7873227999662049,True,far-160,8,2,2,1.25,1,up,8,0
45,2,True,1.253221599967219,33.0,100.0,800.0,0,True,2,down,0.16666666666666666,32,0,0.5559193000080995,0.5559193000080995,0.7495735000120476,True,far-000,8,2,2,1.25,1,down,4,0
46,3,True,2.03235399996629,33.0,50.0,100.0,0,True,1,up,0.16666666666666666,16,0,0.29862310003954917,0.29862310003954917,1.074770700011868,False,far-rnd1,8,1,0,0.625,1,up,8,0
47,3,True,1.2347377999685705,33.0,100.0,800.0,5,True,2,down,0.16666666666666666,32,0.09533089998876676,0.5626416999730282,0.6579725999617949,0.648831499973312,True,far-080,8,2,2,1.25,1,down,4,0
48,1,True,1.4433774000499398,33.0,800.0,100.0,0,True,3,up,0.16666666666666666,60,0,0.9844557999749668,0.9844557999749668,0.7052999999723397,True,far-rnd3,8,1,1,0.625,1,up,8,0
49,4,True,1.0312984000192955,33.0,100.0,800.0,5,True,2,down,0.16666666666666666,32,0.10761409997940063,0.5894600999890827,0.6970741999684833,0.6287600999930874,True,far-080,9,3,3,1.875,1,down,4,0
50,4,True,1.2035802999744192,33.0,100.0,800.0,0,True,2,down,0.16666666666666666,32,0,0.5690085000242107,0.5690085000242107,0.6923744999803603,True,far-000,9,3,3,1.875,1,down,4,0
51,3,True,1.1391294000204653,33.0,33.0,100.0,0,False,0,up,0.16666666666666666,8,0,0.15671690000453964,0.15671690000453964,0.8983621000079438,True,far-rnd0,9,4,3,2.5,1,up,8,0
52,3,True,1.193062899983488,33.0,50.0,100.0,0,True,1,up,0.16666666666666666,16,0,0.2960499000037089,0.2960499000037089,0.9877795000211336,False,far-rnd1,9,2,0,1.25,1,up,8,0
53,2,True,1.4590677000232972,33.0,100.0,800.0,10,True,2,up,0.16666666666666666,28,0.1743826000019908,0.508221699972637,0.6826042999746278,0.5890711999963969,True,far-160,9,3,3,1.875,1,up,8,0
54,1,True,2.719691500009503,33.0,800.0,100.0,0,True,3,up,0.16666666666666666,60,0,0.9892318000202067,0.9892318000202067,0.596400500042364,True,far-rnd3,9,2,2,1.25,1,up,8,0
55,1,True,1.7986224999767728,33.0,100.0,800.0,10,True,2,down,0.16666666666666666,24,0.16763459995854646,0.43300830002408475,0.6006428999826312,1.3009036000003107,True,far-160,10,1,1,0.625,1,down,4,0
56,2,True,0.9587933999719098,33.0,100.0,800.0,5,True,2,down,0.16666666666666666,28,0.09317730000475422,0.5011670000385493,0.5943443000433035,0.8742692000232637,False,far-080,10,1,0,0.625,1,down,4,0
57,2,True,1.3129916000179946,33.0,100.0,800.0,0,True,2,down,0.16666666666666666,28,0,0.49081379995914176,0.49081379995914176,0.8830061000189744,True,far-000,10,1,1,0.625,1,down,4,0
58,3,True,0.9847484999918379,33.0,33.0,100.0,0,False,0,up,0.16666666666666666,8,0,0.15170149999903515,0.15170149999903515,0.9680932000046596,False,far-rnd0,10,5,3,3.125,1,up,8,0
59,3,True,1.1817877999856137,33.0,50.0,100.0,0,True,1,up,0.16666666666666666,24,0,0.42102730000624433,0.42102730000624433,0.4833564999862574,True,far-rnd1,10,1,1,0.625,1,up,8,0
60,4,True,0.8605461000115611,33.0,800.0,100.0,0,True,3,up,0.16666666666666666,60,0,1.0006028999923728,1.0006028999923728,0.4399926000041887,True,far-rnd3,10,3,3,1.875,1,up,8,0
61,1,True,2.086459100013599,33.0,100.0,800.0,5,True,2,down,0.16666666666666666,28,0.0878363000229001,0.4962190000223927,0.5840553000452928,0.7365177000174299,True,far-080,11,2,1,1.25,1,down,4,0
62,4,True,3.8054186000372283,33.0,800.0,100.0,0,True,3,down,0.16666666666666666,56,0,0.934535100008361,0.934535100008361,1.0394367999979295,False,far-rnd3,11,1,0,0.625,1,down,4,0
63,2,True,0.9763037000084296,33.0,100.0,800.0,0,True,2,down,0.16666666666666666,28,0,0.4854539000079967,0.4854539000079967,0.7039117999956943,False,far-000,11,2,1,1.25,1,down,4,0
64,2,True,1.1351678000064567,33.0,50.0,100.0,0,True,1,up,0.16666666666666666,24,0,0.4169660999905318,0.4169660999905318,0.635077100014314,False,far-rnd1,11,2,1,1.25,1,up,8,0
65,3,True,1.8113008000073023,33.0,33.0,100.0,0,False,0,up,0.16666666666666666,8,0,0.15361370000755414,0.15361370000755414,0.7533035000087693,False,far-rnd0,11,6,3,3.75,1,up,8,0
66,1,True,1.6484847000101581,33.0,100.0,800.0,10,True,2,down,0.16666666666666666,24,0.17342079995432869,0.4373430999694392,0.6107638999237679,0.5875033999909647,False,far-160,11,2,1,1.25,1,down,4,0
67,3,True,1.351122900028713,33.0,33.0,100.0,0,False,0,up,0.16666666666666666,8,0,0.1532726000295952,0.1532726000295952,0.710510200005956,False,far-rnd0,12,7,3,4.375,1,up,8,0
68,2,True,2.169022499991115,33.0,100.0,800.0,10,True,2,down,0.16666666666666666,24,0.17336519999662414,0.446343399991747,0.6197085999883711,0.6333145999815315,True,far-160,12,3,2,1.875,1,down,4,0
69,2,True,1.1610188000486232,33.0,100.0,800.0,0,True,2,down,0.16666666666666666,28,0,0.49117520003346726,0.49117520003346726,0.681626400037203,True,far-000,12,3,2,1.875,1,down,4,0
70,1,True,1.8772790000075474,33.0,800.0,100.0,0,True,3,down,0.16666666666666666,56,0,0.921646700007841,0.921646700007841,0.5832800000207499,True,far-rnd3,12,2,1,1.25,1,down,4,0
71,2,True,1.2420189999975264,33.0,50.0,100.0,0,True,1,up,0.16666666666666666,24,0,0.42314889997942373,0.42314889997942373,0.5733061000355519,True,far-rnd1,12,3,2,1.875,1,up,8,0
72,2,True,1.0238838999648578,33.0,100.0,800.0,5,True,2,down,0.16666666666666666,28,0.09687950002262369,0.49184089998016134,0.588720400002785,0.8134231999865733,True,far-080,12,3,2,1.875,1,down,4,0
73,1,True,1.5841244999901392,33.0,100.0,800.0,0,True,2,down,0.16666666666666666,28,0,0.48786490003112704,0.48786490003112704,0.7060889999847859,True,far-000,13,4,3,2.5,1,down,4,0
74,2,True,1.2894125999882817,33.0,100.0,800.0,10,True,2,down,0.16666666666666666,24,0.17189529997995123,0.43914490001043305,0.6110401999903843,0.612116199976299,True,far-160,13,4,3,2.5,1,down,4,0
75,1,True,1.3466003999928944,33.0,800.0,100.0,0,True,3,down,0.16666666666666666,56,0,0.9248933999915607,0.9248933999915607,1.230653100006748,False,far-rnd3,13,3,1,1.875,1,down,4,0
76,2,True,0.857881499978248,33.0,100.0,800.0,5,True,2,down,0.16666666666666666,28,0.09639489999972284,0.5058749999734573,0.6022698999731801,0.6480169999995269,False,far-080,13,4,2,2.5,1,down,4,0
77,1,True,1.7162798999925144,33.0,33.0,100.0,0,False,0,up,0.16666666666666666,16,0,0.26974629994947463,0.26974629994947463,0.5979036999633536,True,far-rnd0,13,1,1,0.625,1,up,8,0
78,3,True,0.9367533999611624,33.0,50.0,100.0,0,True,1,up,0.16666666666666666,24,0,0.4245965000009164,0.4245965000009164,0.8799398000119254,True,far-rnd1,13,4,3,2.5,1,up,8,0
79,3,True,1.7700576999923214,33.0,800.0,100.0,0,True,3,down,0.16666666666666666,56,0,0.9333833999698982,0.9333833999698982,1.0391147999907844,False,far-rnd3,14,4,1,2.5,1,down,4,0
80,1,True,1.7132747999858111,33.0,50.0,100.0,0,True,1,up,0.16666666666666666,24,0,0.41254339995794,0.41254339995794,0.5197619000100531,True,far-rnd1,14,5,4,3.125,1,up,8,0
81,3,True,1.0528316000127234,33.0,100.0,800.0,5,True,2,down,0.16666666666666666,28,0.09858729998813942,0.5001113000325859,0.5986986000207253,0.6055498999776319,True,far-080,14,5,3,3.125,1,down,4,0
82,2,True,1.2803520999732427,33.0,33.0,100.0,0,False,0,up,0.16666666666666666,16,0,0.2795326999621466,0.2795326999621466,0.6311223999946378,True,far-rnd0,14,2,2,1.25,1,up,8,0
83,1,True,1.2758923000073992,33.0,100.0,800.0,0,True,2,down,0.16666666666666666,28,0,0.4830378000042401,0.4830378000042401,0.9124348000041209,False,far-000,14,5,3,3.125,1,down,4,0
84,1,True,1.830286399985198,33.0,100.0,800.0,10,True,2,down,0.16666666666666666,24,0.1690152999944985,0.42626510001719,0.5952804000116885,0.6461452000075951,True,far-160,14,5,4,3.125,1,down,4,0
85,3,True,1.1915292000048794,33.0,100.0,800.0,5,True,2,down,0.16666666666666666,28,0.09838910005055368,0.5117450000252575,0.6101341000758111,0.7053333999938332,True,far-080,15,6,4,3.75,1,down,4,0
86,4,True,1.0766787999891676,33.0,100.0,800.0,0,True,2,down,0.16666666666666666,28,0,0.5002141000004485,0.5002141000004485,0.7023879999760538,False,far-000,15,6,3,3.75,1,down,4,0
87,2,True,0.962222300004214,33.0,800.0,100.0,0,True,3,up,0.16666666666666666,58,0,1.0047179000102915,1.0047179000102915,0.6350385000114329,True,far-rnd3,15,1,1,0.625,1,up,2,0
88,2,True,1.6786503000184894,33.0,100.0,800.0,10,True,2,down,0.16666666666666666,24,0.17774329998064786,0.43710860004648566,0.6148519000271335,0.5934781999676488,True,far-160,15,6,5,3.75,1,down,4,0
89,1,True,3.005804000014905,33.0,50.0,100.0,0,True,1,up,0.16666666666666666,24,0,0.4088253999943845,0.4088253999943845,0.5945667000487447,True,far-rnd1,15,6,5,3.75,1,up,8,0
90,4,True,1.1300898999907076,33.0,33.0,100.0,0,False,0,up,0.16666666666666666,16,0,0.2923259999952279,0.2923259999952279,0.559216599969659,False,far-rnd0,15,3,2,1.875,1,up,8,0
91,2,True,2.057608100003563,33.0,800.0,100.0,0,True,3,up,0.16666666666666666,58,0,0.9600928999716416,0.9600928999716416,1.249198500008788,True,far-rnd3,16,2,2,1.25,2,up,2,0
92,1,True,1.5410857999813743,33.0,50.0,100.0,0,True,1,down,0.16666666666666666,20,0,0.3522745000082068,0.3522745000082068,0.7565873999847099,True,far-rnd1,16,1,1,0.625,1,down,4,0
93,2,True,1.1348013000097126,33.0,33.0,100.0,0,False,0,up,0.16666666666666666,16,0,0.27521039999555796,0.27521039999555796,0.49769950000336394,True,far-rnd0,16,4,3,2.5,1,up,8,0
94,1,True,1.7022581999772228,33.0,100.0,800.0,10,True,2,down,0.16666666666666666,20,0.16843959997640923,0.3744109999970533,0.5428505999734625,0.6850094000110403,True,far-160,16,1,1,0.625,1,down,4,0
95,3,True,2.1710993999731727,33.0,100.0,800.0,0,True,2,down,0.16666666666666666,28,0,0.49135670001851395,0.49135670001851395,0.5970903999987058,True,far-000,16,7,4,4.375,1,down,4,0
96,2,True,1.4373914999887347,33.0,100.0,800.0,5,True,2,down,0.16666666666666666,28,0.09244219999527559,0.49254290002863854,0.5849851000239141,0.8622228000313044,True,far-080,16,7,5,4.375,1,down,4,0
97,3,True,0.9102471999940462,33.0,33.0,100.0,0,False,0,up,0.16666666666666666,16,0,0.2765995000372641,0.2765995000372641,0.4704205000307411,True,far-rnd0,17,5,4,3.125,1,up,8,0
98,4,True,1.8540352000272833,33.0,800.0,100.0,0,True,3,up,0.16666666666666666,58,0,0.9786959000048228,0.9786959000048228,0.7668991000391543,False,far-rnd3,17,3,2,1.875,2,up,2,0
99,3,True,0.654791800014209,33.0,100.0,800.0,0,True,2,down,0.16666666666666666,28,0,0.49223069997970015,0.49223069997970015,1.1107242000289261,False,far-000,17,8,4,5.0,1,down,4,0
100,1,True,3.6561235999688506,33.0,100.0,800.0,5,True,2,down,0.16666666666666666,28,0.0877191000035964,0.5001280999858864,0.5878471999894828,0.5723674999899231,True,far-080,17,8,6,5.0,1,down,4,0
101,2,True,0.8763059999910183,33.0,50.0,100.0,0,True,1,down,0.16666666666666666,20,0,0.3553990999935195,0.3553990999935195,0.7213825000217184,False,far-rnd1,17,2,1,1.25,1,down,4,0
102,4,True,0.7799448000150733,33.0,100.0,800.0,10,True,2,down,0.16666666666666666,20,0.17892929998924956,0.42640619998564944,0.605335499974899,0.6451113999937661,True,far-160,17,2,2,1.25,1,down,4,0
103,3,True,1.3075749999843538,33.0,50.0,100.0,0,True,1,down,0.16666666666666666,20,0,0.35592719999840483,0.35592719999840483,0.7921266999910586,True,far-rnd1,18,3,2,1.875,1,down,4,0
104,2,True,2.318968000006862,33.0,800.0,100.0,0,True,3,up,0.16666666666666666,58,0,0.9560507000423968,0.9560507000423968,1.1035581000032835,False,far-rnd3,18,4,2,2.5,2,up,2,0
105,2,True,2.4651280000107363,33.0,100.0,800.0,0,True,2,down,0.16666666666666666,28,0,0.4822151000262238,0.4822151000262238,1.0919828999903984,True,far-000,18,9,5,5.625,1,down,4,1
106,1,True,2.257504000037443,33.0,100.0,800.0,5,True,2,down,0.16666666666666666,28,0.09093170001870021,0.4944275000016205,0.5853592000203207,1.0407266999827698,False,far-080,18,9,6,5.625,1,down,4,1
107,3,True,0.8280614000395872,33.0,100.0,800.0,10,True,2,down,0.16666666666666666,20,0.1711601999704726,0.3818418000009842,0.5530019999714568,1.0093034000019543,False,far-160,18,3,2,1.875,1,down,4,0
108,2,True,1.0612784000113606,33.0,33.0,100.0,0,False,0,up,0.16666666666666666,16,0,0.2773211000021547,0.2773211000021547,0.7911853000405245,True,far-rnd0,18,6,5,3.75,1,up,8,0
109,3,True,0.9243547000223771,33.0,33.0,100.0,0,False,0,down,0.16666666666666666,12,0,0.21264060004614294,0.21264060004614294,0.7758325000177138,False,far-rnd0,19,1,0,0.625,1,down,4,0
110,1,True,1.6459302000002936,33.0,100.0,800.0,5,True,2,down,0.16666666666666666,28,0.08981089998269454,0.4953413000330329,0.5851522000157274,0.8931333000073209,False,far-080,19,10,6,6.25,1,down,4,1
111,2,True,1.966798099980224,33.0,50.0,100.0,0,True,1,down,0.16666666666666666,20,0,0.3544510999927297,0.3544510999927297,0.7001745000015944,False,far-rnd1,19,4,2,2.5,1,down,4,0
112,2,True,1.227243700006511,33.0,100.0,800.0,10,True,2,down,0.16666666666666666,20,0.1749169999966398,0.400636000034865,0.5755530000315048,0.7272462999681011,True,far-160,19,4,3,2.5,1,down,4,0
113,1,True,1.9807752999477088,33.0,100.0,800.0,0,True,2,down,0.16666666666666666,28,0,0.4863212999771349,0.4863212999771349,1.0803286000154912,False,far-000,19,10,5,6.25,1,down,4,1
114,1,True,1.8734066999750212,33.0,800.0,100.0,0,True,3,up,0.16666666666666666,58,0,0.9529843000345863,0.9529843000345863,1.0790928999776952,False,far-rnd3,19,5,2,3.125,2,up,2,0
115,1,True,2.552128100011032,33.0,800.0,100.0,0,True,3,up,0.16666666666666666,58,0,0.955337299965322,0.955337299965322,1.0733926999964751,True,far-rnd3,20,6,3,3.75,2,up,2,0
116,2,True,1.5579587999964133,33.0,33.0,100.0,0,False,0,down,0.16666666666666666,12,0,0.2121039999765344,0.2121039999765344,0.6553572000120766,True,far-rnd0,20,2,1,1.25,1,down,4,0
117,1,True,1.270353400032036,33.0,50.0,100.0,0,True,1,down,0.16666666666666666,20,0,0.347807299986016,0.347807299986016,1.1238679999951273,True,far-rnd1,20,5,3,3.125,1,down,4,0
118,4,True,1.0512943000067025,33.0,100.0,800.0,10,True,2,down,0.16666666666666666,20,0.1824293999816291,0.38723860000027344,0.5696679999819025,0.9407913999748416,False,far-160,20,5,3,3.125,1,down,4,0
119,2,True,1.5449519999674521,33.0,100.0,800.0,0,True,2,up,0.16666666666666666,29,0,0.5066165999742225,0.5066165999742225,0.5567182999802753,True,far-000,20,1,1,0.625,1,up,1,0
120,2,True,3.189978800015524,33.0,100.0,800.0,5,True,2,down,0.16666666666666666,28,0.09115409996593371,0.4986471000011079,0.5898011999670416,0.6433179000159726,True,far-080,20,11,7,6.875,1,down,4,1
121,1,True,1.1990271999966353,33.0,33.0,100.0,0,False,0,down,0.16666666666666666,12,0,0.20513519999803975,0.20513519999803975,0.726189200009685,True,far-rnd0,21,3,2,1.875,1,down,4,0
122,4,True,3.697761100018397,33.0,800.0,100.0,0,True,3,up,0.16666666666666666,58,0,0.9649219999555498,0.9649219999555498,0.7694904999807477,True,far-rnd3,21,7,4,4.375,2,up,2,0
123,1,True,1.8169780999887735,33.0,100.0,800.0,10,True,2,down,0.16666666666666666,20,0.16880549996858463,0.3636055999668315,0.5324110999354161,0.9663335999939591,False,far-160,21,6,3,3.75,1,down,4,0
124,1,True,1.4027151000336744,33.0,50.0,100.0,0,True,1,down,0.16666666666666666,20,0,0.34955509996507317,0.34955509996507317,0.4929757000063546,True,far-rnd1,21,6,4,3.75,1,down,4,0
125,1,True,3.334644599992316,33.0,100.0,800.0,0,True,2,up,0.16666666666666666,29,0,0.5005482000415213,0.5005482000415213,0.9406669000163674,False,far-000,21,2,1,1.25,2,up,1,0
126,2,True,1.1293250999879092,33.0,100.0,800.0,5,True,2,down,0.16666666666666666,28,0.09696900000562891,0.49173490004613996,0.5887039000517689,0.8208112000138499,True,far-080,21,12,8,7.5,1,down,4,1
127,2,True,1.211979000014253,33.0,33.0,100.0,0,False,0,down,0.16666666666666666,12,0,0.21470660000341013,0.21470660000341013,0.7392649999819696,True,far-rnd0,22,4,3,2.5,1,down,4,0
128,1,True,1.55001289997017,33.0,100.0,800.0,0,True,2,up,0.16666666666666666,29,0,0.4983974999631755,0.4983974999631755,0.8639638000167906,False,far-000,22,3,1,1.875,2,up,1,0
129,1,True,1.5360525000141934,33.0,50.0,100.0,0,True,1,down,0.16666666666666666,20,0,0.34402269998099655,0.34402269998099655,1.27354840002954,False,far-rnd1,22,7,4,4.375,1,down,4,0
130,1,True,2.0737170999636874,33.0,800.0,100.0,0,True,3,up,0.16666666666666666,58,0,0.960359700024128,0.960359700024128,0.9004292000317946,False,far-rnd3,22,8,4,5.0,2,up,2,0
131,1,True,3.781296100001782,33.0,100.0,800.0,10,True,2,down,0.16666666666666666,20,0.1677491000154987,0.36656370002310723,0.5343128000386059,0.7057651999639347,False,far-160,22,7,3,4.375,1,down,4,0
132,2,True,4.463941800000612,33.0,100.0,800.0,5,True,2,down,0.16666666666666666,28,0.09314539999468252,0.4946825000224635,0.587827900017146,0.7002383000217378,True,far-080,22,13,9,8.125,1,down,4,1
133,2,True,1.5918065999867395,33.0,100.0,800.0,10,True,2,up,0.16666666666666666,22,0.1710989000275731,0.3950192999909632,0.5661182000185363,1.1237781000090763,False,far-160,23,1,0,0.625,1,up,2,0
134,3,True,0.8278655999456532,33.0,50.0,100.0,0,True,1,down,0.16666666666666666,20,0,0.36098679999122396,0.36098679999122396,0.5752878999919631,True,far-rnd1,23,8,5,5.0,1,down,4,0
135,1,True,2.203931400028523,33.0,100.0,800.0,5,True,2,down,0.16666666666666666,28,0.09235449996776879,0.5006474999827333,0.5930019999505021,0.6055043999804184,True,far-080,23,14,10,8.75,1,down,4,1
136,1,True,1.7390193999744952,33.0,100.0,800.0,0,True,2,up,0.16666666666666666,29,0,0.4951403000159189,0.4951403000159189,1.6185259000048973,True,far-000,23,4,2,2.5,2,up,1,0
137,2,True,1.0895262000267394,33.0,800.0,100.0,0,True,3,up,0.16666666666666666,58,0,0.9587549000279978,0.9587549000279978,0.8182054000208154,True,far-rnd3,23,9,5,5.625,2,up,2,1
138,1,True,1.856566499976907,33.0,33.0,100.0,0,False,0,down,0.16666666666666666,12,0,0.2055885999579914,0.2055885999579914,0.6532088000094518,False,far-rnd0,23,5,3,3.125,1,down,4,0
139,3,True,1.3638805000227876,33.0,100.0,800.0,5,True,2,down,0.16666666666666666,26,0.09669809998013079,0.48327960004098713,0.5799777000211179,0.674667600018438,False,far-080,24,1,0,0.625,1,down,2,0
140,3,True,1.9994799999985844,33.0,33.0,100.0,0,False,0,down,0.16666666666666666,12,0,0.2189797000028193,0.2189797000028193,1.0096068999846466,False,far-rnd0,24,6,3,3.75,1,down,4,0
141,1,True,1.6675342000089586,33.0,800.0,100.0,0,True,3,up,0.16666666666666666,58,0,0.9621221999987029,0.9621221999987029,1.1981452000327408,True,far-rnd3,24,10,6,6.25,2,up,2,1
142,2,True,1.11523739999393,33.0,100.0,800.0,0,True,2,up,0.16666666666666666,29,0,0.5047145999851637,0.5047145999851637,0.6601542999851517,False,far-000,24,5,2,3.125,2,up,1,0
143,1,True,1.643852999957744,33.0,100.0,800.0,10,True,2,up,0.16666666666666666,22,0.17434770002728328,0.39463470003101975,0.568982400058303,0.6117131999926642,True,far-160,24,2,1,1.25,2,up,2,0
144,3,True,1.2181662999792024,33.0,50.0,100.0,0,True,1,down,0.16666666666666666,20,0,0.3544112000381574,0.3544112000381574,1.1059547999757342,False,far-rnd1,24,9,5,5.625,1,down,4,1
145,2,True,3.314585799991619,33.0,33.0,100.0,0,False,0,down,0.16666666666666666,12,0,0.21393749996786937,0.21393749996786937,0.8425267999991775,True,far-rnd0,25,7,4,4.375,1,down,4,0
146,1,True,1.29503769997973,33.0,50.0,100.0,0,True,1,down,0.16666666666666666,20,0,0.35278630000539124,0.35278630000539124,0.572745900019072,True,far-rnd1,25,10,6,6.25,1,down,4,1
147,1,True,1.5366492999601178,33.0,800.0,100.0,0,True,3,up,0.16666666666666666,58,0,0.9617685000412166,0.9617685000412166,0.4203284999821335,True,far-rnd3,25,11,7,6.875,2,up,2,1
148,3,True,1.447784399962984,33.0,100.0,800.0,5,True,2,down,0.16666666666666666,26,0.09715420001884922,0.47817309998208657,0.5753273000009358,1.0112309000105597,False,far-080,25,2,0,1.25,2,down,2,0
149,1,True,1.7315229999949224,33.0,100.0,800.0,0,True,2,up,0.16666666666666666,29,0,0.499114100006409,0.499114100006409,0.529670600022655,True,far-000,25,6,3,3.75,2,up,1,0
150,2,True,0.8500382999773137,33.0,100.0,800.0,10,True,2,up,0.16666666666666666,22,0.17645140003878623,0.4087528000236489,0.5852042000624351,0.5811755000031553,True,far-160,25,3,2,1.875,2,up,2,0
151,3,True,1.6477248000446707,33.0,100.0,800.0,10,True,2,up,0.16666666666666666,22,0.17018429999006912,0.39877850003540516,0.5689628000254743,0.5386713999905623,True,far-160,26,4,3,2.5,2,up,2,0
152,4,True,1.3165692000184208,33.0,33.0,100.0,0,False,0,down,0.16666666666666666,12,0,0.2293008000124246,0.2293008000124246,0.5413138000294566,True,far-rnd0,26,8,5,5.0,1,down,4,0
153,1,True,1.1066289999871515,33.0,50.0,100.0,0,True,1,down,0.16666666666666666,20,0,0.3470826999982819,0.3470826999982819,0.790113500028383,True,far-rnd1,26,11,7,6.875,1,down,4,1
154,1,True,1.6283909999765456,33.0,800.0,100.0,0,True,3,up,0.16666666666666666,58,0,0.9535850000102073,0.9535850000102073,0.3447298000101,True,far-rnd3,26,12,8,7.5,2,up,2,1
155,2,True,0.9666837999830022,33.0,100.0,800.0,0,True,2,up,0.16666666666666666,29,0,0.506241199967917,0.506241199967917,0.7158337999717332,True,far-000,26,7,4,4.375,2,up,1,0
156,2,True,1.005418999993708,33.0,100.0,800.0,5,True,2,down,0.16666666666666666,26,0.09872000000905246,0.4673361000022851,0.5660561000113375,0.5076367000001483,True,far-080,26,3,1,1.875,2,down,2,0
157,1,True,2.3280987000325695,33.0,100.0,800.0,10,True,2,up,0.16666666666666666,22,0.17214370000874624,0.3904791999957524,0.5626229000044987,0.5828638999955729,True,far-160,27,5,4,3.125,2,up,2,0
158,2,True,1.4331238999729976,33.0,33.0,100.0,0,False,0,down,0.16666666666666666,12,0,0.21380220004357398,0.21380220004357398,0.6163608999922872,True,far-rnd0,27,9,6,5.625,1,down,4,1
159,3,True,1.5592902000062168,33.0,100.0,800.0,0,True,2,up,0.16666666666666666,29,0,0.502971299982164,0.502971299982164,0.7447414000052959,False,far-000,27,8,4,5.0,2,up,1,0
160,2,True,1.4124267000006512,33.0,800.0,100.0,0,True,3,up,0.16666666666666666,58,0,0.9635156000149436,0.9635156000149436,0.9319635999854654,True,far-rnd3,27,13,9,8.125,2,up,2,1
161,1,True,1.614538999972865,33.0,100.0,800.0,5,True,2,down,0.16666666666666666,26,0.08832999999867752,0.468917699996382,0.5572476999950595,1.0091735000023618,False,far-080,27,4,1,2.5,2,down,2,0
162,4,True,1.7881068999995477,33.0,50.0,100.0,0,True,1,down,0.16666666666666666,20,0,0.3680817999993451,0.3680817999993451,0.6108862000401132,True,far-rnd1,27,12,8,7.5,1,down,4,1
163,1,True,1.087162800016813,33.0,100.0,800.0,0,True,2,up,0.16666666666666666,29,0,0.5287025999859907,0.5287025999859907,0.9214327000081539,False,far-000,28,9,4,5.625,2,up,1,1
164,3,True,0.8175739999860525,33.0,800.0,100.0,0,True,3,up,0.16666666666666666,58,0,0.964874500001315,0.964874500001315,1.0804221000289544,False,far-rnd3,28,14,9,8.75,2,up,2,1
165,2,True,1.3690331000252627,33.0,50.0,100.0,0,True,1,down,0.16666666666666666,20,0,0.35637329996097833,0.35637329996097833,0.7358922999701463,False,far-rnd1,28,13,8,8.125,1,down,4,1
166,3,True,1.73714199999813,33.0,100.0,800.0,10,True,2,up,0.16666666666666666,22,0.1813923000008799,0.4111102999886498,0.5925025999895297,0.8754485999816097,True,far-160,28,6,5,3.75,2,up,2,0
167,2,True,1.0062265999731608,33.0,100.0,800.0,5,True,2,down,0.16666666666666666,26,0.09322029998293146,0.4686249000369571,0.5618452000198886,1.040151999972295,False,far-080,28,5,1,3.125,2,down,2,0
168,2,True,0.7519958000048064,33.0,33.0,100.0,0,False,0,down,0.16666666666666666,12,0,0.21172149997437373,0.21172149997437373,0.9317922000191174,False,far-rnd0,28,10,6,6.25,1,down,4,1
169,2,True,0.9298584000207484,33.0,800.0,100.0,0,True,3,up,0.16666666666666666,58,0,0.9634009000146762,0.9634009000146762,1.0261497999890707,False,far-rnd3,29,15,9,9.375,2,up,2,1
170,2,True,0.9454480000422336,33.0,50.0,100.0,0,True,1,down,0.16666666666666666,20,0,0.3514293000334874,0.3514293000334874,0.5711920000030659,True,far-rnd1,29,14,9,8.75,1,down,4,1
171,3,True,0.9692602999857627,33.0,100.0,800.0,0,True,2,up,0.16666666666666666,29,0,0.5067604999640025,0.5067604999640025,1.3497343999915756,True,far-000,29,10,5,6.25,2,up,1,1
172,3,True,0.9754132999805734,33.0,33.0,100.0,0,False,0,down,0.16666666666666666,12,0,0.2177926999866031,0.2177926999866031,0.7622469000052661,True,far-rnd0,29,11,7,6.875,1,down,4,1
173,1,True,2.5318055999814533,33.0,100.0,800.0,5,True,2,up,0.16666666666666666,27,0.09243219997733831,0.47417980001773685,0.5666119999950752,0.9366810999927111,False,far-080,29,1,0,0.625,2,up,1,0
174,1,True,1.5892540999921039,33.0,100.0,800.0,10,True,2,up,0.16666666666666666,22,0.1674699999857694,0.3999360000016168,0.5674059999873862,0.6970877000130713,True,far-160,29,7,6,4.375,2,up,2,0
175,3,True,1.7990928999497555,33.0,33.0,100.0,0,False,0,down,0.16666666666666666,12,0,0.2181523999897763,0.2181523999897763,0.7422605000319891,False,far-rnd0,30,12,7,7.5,1,down,4,1
176,2,True,0.8753138000029139,33.0,50.0,100.0,0,True,1,down,0.16666666666666666,20,0,0.35031599999638274,0.35031599999638274,0.6393926999880932,True,far-rnd1,30,15,10,9.375,1,down,4,1
177,1,True,1.2417585999937728,33.0,100.0,800.0,10,True,2,up,0.16666666666666666,22,0.16905109997605905,0.39445610000984743,0.5635071999859065,0.8655902000027709,False,far-160,30,8,6,5.0,2,up,2,0
178,1,True,1.3480878999689594,33.0,800.0,100.0,0,True,3,up,0.16666666666666666,58,0,0.9527493999921717,0.9527493999921717,1.0203323000459932,False,far-rnd3,30,16,9,10.0,2,up,2,1
179,1,True,2.2659686999977566,33.0,100.0,800.0,0,True,2,up,0.16666666666666666,29,0,0.4979466000222601,0.4979466000222601,0.8535081000300124,False,far-000,30,11,5,6.875,2,up,1,1
180,1,True,1.1774397999979556,33.0,100.0,800.0,5,True,2,up,0.16666666666666666,27,0.08641019999049604,0.47546149999834597,0.561871699988842,0.6072236999752931,True,far-080,30,2,1,1.25,2,up,1,0
181,3,True,1.3830860999878496,33.0,800.0,100.0,0,True,3,up,0.16666666666666666,58,0,0.9644722999655642,0.9644722999655642,0.7475229999981821,False,far-rnd3,31,17,9,10.625,2,up,2,2
182,1,True,2.8036787000019103,33.0,100.0,800.0,5,True,2,up,0.16666666666666666,27,0.15382830001180992,0.47473150002770126,0.6285598000395112,0.5665646000416018,True,far-080,31,3,2,1.875,2,up,1,0
183,1,True,1.8529218999901786,33.0,100.0,800.0,10,True,2,up,0.16666666666666666,22,0.17773469997337088,0.40264939999906346,0.5803840999724343,1.015486000047531,False,far-160,31,9,6,5.625,2,up,2,1
184,2,True,1.0417495000292547,33.0,33.0,100.0,0,False,0,down,0.16666666666666666,12,0,0.21640999999362975,0.21640999999362975,0.9345723000005819,False,far-rnd0,31,13,7,8.125,1,down,4,1
185,3,True,0.7852465999894775,33.0,100.0,800.0,0,True,2,up,0.16666666666666666,29,0,0.5115255999844521,0.5115255999844521,0.7867986999917775,False,far-000,31,12,5,7.5,2,up,1,1
186,1,True,2.550868000020273,33.0,50.0,100.0,0,True,1,down,0.16666666666666666,20,0,0.34719320002477616,0.34719320002477616,1.7619331000023521,False,far-rnd1,31,16,10,10.0,1,down,4,1
187,2,True,0.9094100999645889,33.0,33.0,100.0,0,False,0,up,0.16666666666666666,13,0,0.22182510001584888,0.22182510001584888,0.8498514000093564,False,far-rnd0,32,1,0,0.625,1,up,1,0
188,2,True,1.2156356000341475,33.0,50.0,100.0,0,True,1,down,0.16666666666666666,20,0,0.3487341000000015,0.3487341000000015,0.8893081999849528,False,far-rnd1,32,17,10,10.625,1,down,4,2
189,3,True,1.2297811000025831,33.0,100.0,800.0,0,True,2,up,0.16666666666666666,30,0,0.528898999968078,0.528898999968078,0.6110705000464804,True,far-000,32,1,1,0.625,2,up,1,0
190,3,True,0.9578004999784753,33.0,100.0,800.0,10,True,2,up,0.16666666666666666,22,0.1771240999805741,0.41396550001809373,0.5910895999986678,0.648624400026165,False,far-160,32,10,6,6.25,2,up,2,1
191,2,True,1.8316655999515206,33.0,800.0,100.0,0,True,3,up,0.16666666666666666,58,0,0.9633650000323541,0.9633650000323541,0.7796622000169009,False,far-rnd3,32,18,9,11.25,2,up,2,2
192,1,True,2.884322899975814,33.0,100.0,800.0,5,True,2,up,0.16666666666666666,27,0.09253150003496557,0.47372209996683523,0.5662536000018008,0.8135234999936074,True,far-080,32,4,3,2.5,2,up,1,0
193,1,True,1.8931895000278018,33.0,100.0,800.0,10,True,2,up,0.16666666666666666,22,0.16897600004449487,0.39941069995984435,0.5683867000043392,0.89781579998089,False,far-160,33,11,6,6.875,2,up,2,1
194,4,True,1.0363743000198156,33.0,50.0,100.0,0,True,1,down,0.16666666666666666,20,0,0.3654894000501372,0.3654894000501372,0.7119761999929324,False,far-rnd1,33,18,10,11.25,1,down,4,2
195,1,True,1.2768451000447385,33.0,33.0,100.0,0,False,0,up,0.16666666666666666,13,0,0.22032169997692108,0.22032169997692108,0.9846718000480905,True,far-rnd0,33,2,1,1.25,2,up,1,0
196,3,True,0.8483616999583319,33.0,100.0,800.0,0,True,2,up,0.16666666666666666,30,0,0.5279560000053607,0.5279560000053607,0.8815422999905422,False,far-000,33,2,1,1.25,3,up,1,0
197,2,True,0.8138307000044733,33.0,800.0,100.0,0,True,3,up,0.16666666666666666,59,0,0.9816409000195563,0.9816409000195563,0.6359992999932729,True,far-rnd3,33,1,1,0.625,2,up,1,0
198,4,True,1.3769999000360258,33.0,100.0,800.0,5,True,2,up,0.16666666666666666,27,0.10283240000717342,0.5036589000374079,0.6064913000445813,0.6801470000064,True,far-080,33,5,4,3.125,2,up,1,0
199,1,True,3.3011325999978,33.0,100.0,800.0,0,True,2,up,0.16666666666666666,30,0,0.5158933999482542,0.5158933999482542,0.7416479999665171,True,far-000,34,3,2,1.875,3,up,1,0
200,2,True,1.2622673999867402,33.0,100.0,800.0,5,True,2,up,0.16666666666666666,27,0.09008520003408194,0.4814935000031255,0.5715787000372075,0.5755328999948688,True,far-080,34,6,5,3.75,2,up,1,0
201,2,True,1.6478438000194728,33.0,100.0,800.0,10,True,2,up,0.16666666666666666,22,0.1698718999978155,0.5118696999852546,0.68174159998307,0.5153782999841496,True,far-160,34,12,7,7.5,2,up,2,1
202,3,True,1.2498325999476947,33.0,33.0,100.0,0,False,0,up,0.16666666666666666,13,0,0.33575019997078925,0.33575019997078925,0.46619389997795224,True,far-rnd0,34,3,2,1.875,2,up,1,0
203,1,True,1.3894265999551862,33.0,800.0,100.0,0,True,3,up,0.16666666666666666,59,0,0.9689678999711759,0.9689678999711759,0.6652108999551274,True,far-rnd3,34,2,2,1.25,3,up,1,0
204,1,True,1.2926676999777555,33.0,50.0,100.0,0,True,1,up,0.16666666666666666,21,0,0.361311599961482,0.361311599961482,0.5136851000133902,True,far-rnd1,34,1,1,0.625,1,up,1,0
205,2,True,1.0578313000150956,33.0,100.0,800.0,5,True,2,up,0.16666666666666666,27,0.09053659997880459,0.4879256000276655,0.5784622000064701,0.5998346999986097,True,far-080,35,7,6,4.375,2,up,1,0
206,1,True,1.2276400999980979,33.0,100.0,800.0,10,True,2,up,0.16666666666666666,22,0.16814460000023246,0.3954148999764584,0.5635594999766909,0.6347183000179939,False,far-160,35,13,7,8.125,2,up,2,1
207,1,True,1.4916359000490047,33.0,50.0,100.0,0,True,1,up,0.16666666666666666,21,0,0.3641883000382222,0.3641883000382222,0.9555676000309177,False,far-rnd1,35,2,1,1.25,3,up,1,0
208,2,True,1.2964891000301577,33.0,33.0,100.0,0,False,0,up,0.16666666666666666,13,0,0.24021959997480735,0.24021959997480735,0.7133678999962285,False,far-rnd0,35,4,2,2.5,2,up,1,0
209,1,True,0.9088458999758586,33.0,800.0,100.0,0,True,3,up,0.16666666666666666,59,0,0.9676307000336237,0.9676307000336237,0.6703971999813803,True,far-rnd3,35,3,3,1.875,3,up,1,0
210,2,True,0.8379979999735951,33.0,100.0,800.0,0,True,2,up,0.16666666666666666,30,0,0.5153120999457315,0.5153120999457315,0.8124061999842525,False,far-000,35,4,2,2.5,3,up,1,0
211,3,True,0.9521691999980249,33.0,100.0,800.0,10,True,2,up,0.16666666666666666,22,0.17776300001423806,0.4111337999929674,0.5888968000072055,1.0237065999535844,False,far-160,36,14,7,8.75,2,up,2,1
212,3,True,2.0937648999970406,33.0,100.0,800.0,0,True,2,up,0.16666666666666666,30,0,0.5240415000007488,0.5240415000007488,0.6505953000159934,True,far-000,36,5,3,3.125,3,up,1,0
213,1,True,1.1358598999795504,33.0,100.0,800.0,5,True,2,up,0.16666666666666666,27,0.09244669997133315,0.47189430001890287,0.564340999990236,0.6561702999752015,True,far-080,36,8,7,5.0,2,up,1,0
214,4,True,0.7373739000177011,33.0,50.0,100.0,0,True,1,up,0.16666666666666666,21,0,0.3871186000178568,0.3871186000178568,0.6086901999660768,False,far-rnd1,36,3,1,1.875,3,up,1,0
215,2,True,1.3358413000241853,33.0,800.0,100.0,0,True,3,up,0.16666666666666666,59,0,0.9728593999752775,0.9728593999752775,0.7976730999653228,False,far-rnd3,36,4,3,2.5,3,up,1,0
216,3,True,1.2934917000238784,33.0,33.0,100.0,0,False,0,up,0.16666666666666666,13,0,0.23433149995980784,0.23433149995980784,0.538814099971205,True,far-rnd0,36,5,3,3.125,2,up,1,0
217,1,True,1.2801141999661922,33.0,100.0,800.0,10,True,2,up,0.16666666666666666,22,0.17349980003200471,0.3964002999709919,0.5699001000029966,0.9520846999948844,False,far-160,37,15,7,9.375,2,up,2,1
218,2,True,0.9259253000491299,33.0,100.0,800.0,5,True,2,up,0.16666666666666666,27,0.0957421000348404,0.47869759995955974,0.5744396999944001,0.5654027999844402,True,far-080,37,9,8,5.625,2,up,1,1
219,2,True,1.4592362999683246,33.0,100.0,800.0,0,True,2,up,0.16666666666666666,30,0,0.5242962000193074,0.5242962000193074,0.8523667000117712,True,far-000,37,6,4,3.75,3,up,1,0
220,2,True,1.3730667000054382,33.0,800.0,100.0,0,True,3,up,0.16666666666666666,59,0,0.9757179000298493,0.9757179000298493,0.49228690000018105,True,far-rnd3,37,5,4,3.125,3,up,1,0
221,2,True,1.3741805999889039,33.0,33.0,100.0,0,False,0,up,0.16666666666666666,13,0,0.22726810001768172,0.22726810001768172,1.3108697999850847,False,far-rnd0,37,6,3,3.75,2,up,1,0
222,2,True,1.1584279999951832,33.0,50.0,100.0,0,True,1,up,0.16666666666666666,21,0,0.36105829995358363,0.36105829995358363,0.6778902999940328,True,far-rnd1,37,4,2,2.5,3,up,1,0
223,3,True,1.0714229999575764,33.0,100.0,800.0,10,True,2,up,0.16666666666666666,23,0.17355639999732375,0.4193894999916665,0.5929458999889903,0.6199544999981299,True,far-160,38,1,1,0.625,2,up,1,0
224,1,True,1.2223828999558464,33.0,800.0,100.0,0,True,3,up,0.16666666666666666,59,0,0.9719276999821886,0.9719276999821886,0.48986640002112836,True,far-rnd3,38,6,5,3.75,3,up,1,0
225,1,True,1.848681100003887,33.0,50.0,100.0,0,True,1,up,0.16666666666666666,21,0,0.3654415999772027,0.3654415999772027,0.6969171999953687,False,far-rnd1,38,5,2,3.125,3,up,1,0
226,2,True,3.384715899999719,33.0,100.0,800.0,0,True,2,up,0.16666666666666666,30,0,0.516961999994237,0.516961999994237,0.8012250000028871,True,far-000,38,7,5,4.375,3,up,1,0
227,1,True,1.2968411999754608,33.0,33.0,100.0,0,False,0,up,0.16666666666666666,13,0,0.2213064999668859,0.2213064999668859,1.5621185000054538,True,far-rnd0,38,7,4,4.375,2,up,1,0
228,2,True,1.114509699982591,33.0,33.0,100.0,0,False,0,up,0.16666666666666666,13,0,0.22744820005027577,0.22744820005027577,0.577520499995444,True,far-rnd0,39,8,5,5.0,2,up,1,0
229,2,True,1.2504239999689162,33.0,100.0,800.0,10,True,2,up,0.16666666666666666,23,0.17792860005283728,0.4219145000097342,0.5998431000625715,0.8544765999540687,False,far-160,39,2,1,1.25,2,up,1,0
230,4,True,1.0776948999846354,33.0,800.0,100.0,0,True,3,up,0.16666666666666666,59,0,1.0040982000064105,1.0040982000064105,0.9965459000086412,False,far-rnd3,39,7,5,4.375,3,up,1,0
231,1,True,2.3001400000066496,33.0,100.0,800.0,0,True,2,up,0.16666666666666666,30,0,0.5215278000105172,0.5215278000105172,0.7872712000389583,False,far-000,39,8,5,5.0,3,up,1,0
232,1,True,1.3636865000007674,33.0,50.0,100.0,0,True,1,up,0.16666666666666666,21,0,0.358372499991674,0.358372499991674,0.9058927000151016,True,far-rnd1,39,6,3,3.75,3,up,1,0
233,3,True,1.0271532000042498,33.0,50.0,100.0,0,True,1,up,0.16666666666666666,21,0,0.3696201000129804,0.3696201000129804,0.6878512999974191,False,far-rnd1,40,7,3,4.375,3,up,1,0
234,2,True,0.9979488999815658,33.0,100.0,800.0,10,True,2,up,0.16666666666666666,23,0.16985989996464923,0.40711149998242036,0.5769713999470696,0.823032799991779,False,far-160,40,3,1,1.875,2,up,1,0
235,1,True,1.0638093000161462,33.0,800.0,100.0,0,True,3,up,0.16666666666666666,59,0,0.9705381000530906,0.9705381000530906,0.8319893999723718,False,far-rnd3,40,8,5,5.0,3,up,1,0
236,2,True,0.926739800022915,33.0,33.0,100.0,0,False,0,up,0.16666666666666666,13,0,0.22891810000874102,0.22891810000874102,0.90514789998997,False,far-rnd0,40,9,5,5.625,2,up,1,1
237,2,True,3.5155774999875575,33.0,50.0,100.0,0,True,1,up,0.16666666666666666,21,0,0.37011489999713376,0.37011489999713376,0.6647440000087954,False,far-rnd1,41,8,3,5.0,3,up,1,0
238,2,True,1.0237941999803297,33.0,100.0,800.0,10,True,2,up,0.16666666666666666,23,0.17829249997157604,0.4234769999748096,0.6017694999463856,0.5988711999962106,True,far-160,41,4,2,2.5,2,up,1,0
239,2,True,0.7256816999870352,33.0,33.0,100.0,0,False,0,up,0.16666666666666666,13,0,0.23234029999002814,0.23234029999002814,0.6961164000094868,False,far-rnd0,41,10,5,6.25,2,up,1,1
240,2,True,1.1110755000263453,33.0,33.0,100.0,0,False,0,up,0.16666666666666666,13,0,0.22900340001797304,0.22900340001797304,0.822943800012581,True,far-rnd0,42,11,6,6.875,2,up,1,1
241,1,True,0.9714206999633461,33.0,100.0,800.0,10,True,2,up,0.16666666666666666,23,0.1684118999983184,0.41818290000082925,0.5865947999991477,0.7180755999870598,False,far-160,42,5,2,3.125,2,up,1,0
242,1,True,1.2315004999982193,33.0,100.0,800.0,10,True,2,up,0.16666666666666666,23,0.16714450001018122,0.41797399998176843,0.5851184999919496,0.8128425999893807,False,far-160,43,6,2,3.75,2,up,1,0
243,3,True,0.8764073000056669,33.0,33.0,100.0,0,False,0,up,0.16666666666666666,13,0,0.2318737999885343,0.2318737999885343,0.7640957999974489,False,far-rnd0,43,12,6,7.5,2,up,1,1
244,3,True,0.9261234999867156,33.0,33.0,100.0,0,False,0,up,0.16666666666666666,13,0,0.23780860000988469,0.23780860000988469,0.7862908999668434,True,far-rnd0,44,13,7,8.125,2,up,1,1
245,1,True,1.3187452999991365,33.0,100.0,800.0,10,True,2,up,0.16666666666666666,23,0.1683552999747917,0.4078864000039175,0.5762416999787092,1.037864499958232,True,far-160,44,7,3,4.375,2,up,1,0
246,2,True,0.8360087999608368,33.0,100.0,800.0,10,True,2,up,0.16666666666666666,23,0.17294300004141405,0.4215760999941267,0.5945191000355408,0.6002415999537334,True,far-160,45,8,4,5.0,2,up,1,0
247,2,True,0.9700134000158869,33.0,33.0,100.0,0,False,0,up,0.16666666666666666,13,0,0.2242530999938026,0.2242530999938026,0.7391839000047185,True,far-rnd0,45,14,8,8.75,2,up,1,1
248,1,True,1.0173260000301525,33.0,33.0,100.0,0,False,0,up,0.16666666666666666,13,0,0.22323350002989173,0.22323350002989173,0.727239899977576,True,far-rnd0,46,15,9,9.375,2,up,1,1
249,4,True,3.262033699953463,33.0,100.0,800.0,10,True,2,up,0.16666666666666666,23,0.1719059000024572,0.4218033999786712,0.5937092999811284,0.7331540000159293,False,far-160,46,9,4,5.625,2,up,1,1
250,1,True,1.669577400025446,33.0,33.0,100.0,0,False,0,up,0.16666666666666666,13,0,0.2208717999747023,0.2208717999747023,0.6306052000145428,True,far-rnd0,47,16,10,10.0,2,up,1,1
251,2,True,1.0931376999942586,33.0,100.0,800.0,10,True,2,up,0.16666666666666666,23,0.1759942999924533,0.4254274999839254,0.6014217999763787,0.7562319000135176,True,far-160,47,10,5,6.25,2,up,1,1
252,2,True,0.9923813000204973,33.0,100.0,800.0,10,True,2,up,0.16666666666666666,23,0.17707049997989088,0.41702710004756227,0.5940976000274532,0.6411650999798439,True,far-160,48,11,6,6.875,2,up,1,1
253,4,True,0.9921543000382371,33.0,33.0,100.0,0,False,0,up,0.16666666666666666,13,0,0.23409380001248792,0.23409380001248792,0.6055933000170626,True,far-rnd0,48,17,11,10.625,2,up,16,2
254,2,True,0.723745500028599,33.0,50.0,100.0,0,True,1,up,0.16666666666666666,21,0,0.3671366000198759,0.3671366000198759,0.8059394999872893,False,far-rnd1,42,9,3,5.625,3,up,16,1
255,3,True,1.1714749000384472,33.0,800.0,100.0,0,True,3,up,0.16666666666666666,59,0,0.9769936000229791,0.9769936000229791,0.6952051999978721,False,far-rnd3,41,9,5,5.625,3,up,16,1
256,3,True,1.336244500009343,33.0,33.0,100.0,0,False,0,up,0.16666666666666666,13,0,0.23852949996944517,0.23852949996944517,0.7007423999602906,False,far-rnd0,49,18,11,11.25,0.5,up,16,2
257,1,True,2.077275399991777,33.0,100.0,800.0,10,True,2,up,0.16666666666666666,23,0.16914559999713674,0.4169728999841027,0.5861184999812394,0.7364815999753773,False,far-160,49,12,6,7.5,2,up,1,1
258,4,True,1.231392199988477,33.0,800.0,100.0,0,True,3,up,0.16666666666666666,67,0,1.1187063000397757,1.1187063000397757,0.45600659999763593,True,far-rnd3,42,1,1,0.625,0.5,up,8,0
259,2,True,0.9221953000524081,33.0,50.0,100.0,0,True,1,up,0.16666666666666666,29,0,0.5046719000092708,0.5046719000092708,0.44744039996294305,True,far-rnd1,43,1,1,0.625,0.5,up,8,0
260,3,True,1.019942799990531,33.0,800.0,100.0,0,True,3,up,0.16666666666666666,67,0,1.1170148000237532,1.1170148000237532,1.008921200002078,False,far-rnd3,43,2,1,1.25,1,up,8,0
261,2,True,1.2865625999984331,33.0,50.0,100.0,0,True,1,up,0.16666666666666666,29,0,0.4991106999805197,0.4991106999805197,0.34848019998753443,True,far-rnd1,44,2,2,1.25,1,up,8,0
262,2,True,2.442370100005064,33.0,33.0,100.0,0,False,0,up,0.16666666666666666,13,0,0.2252734000212513,0.2252734000212513,1.1256154000293463,True,far-rnd0,50,19,12,11.875,0.5,up,16,2
263,4,True,1.2229225999908522,33.0,100.0,800.0,10,True,2,up,0.16666666666666666,23,0.177793099952396,0.44378229998983443,0.6215753999422304,0.9684047000482678,False,far-160,50,13,6,8.125,2,up,1,1
264,4,True,0.994973199965898,33.0,100.0,800.0,10,True,2,up,0.16666666666666666,24,0.19894779997412115,0.4473015000112355,0.6462492999853566,0.7780333000118844,False,far-160,51,1,0,0.625,2,up,1,0
265,1,True,1.1151350000291131,33.0,50.0,100.0,0,True,1,up,0.16666666666666666,29,0,0.490698000008706,0.490698000008706,0.43401409999933094,True,far-rnd1,45,3,3,1.875,1,up,8,0
266,1,True,1.8026494000223465,33.0,800.0,100.0,0,True,3,up,0.16666666666666666,67,0,1.0980783000122756,1.0980783000122756,0.9245935999788344,False,far-rnd3,44,3,1,1.875,1,up,8,0
267,2,True,1.9068608999950811,33.0,33.0,100.0,0,False,0,up,0.16666666666666666,13,0,0.22982830001274124,0.22982830001274124,1.1979676999617368,True,far-rnd0,51,20,13,12.5,0.5,up,16,2
268,4,True,0.7557846999843605,33.0,33.0,100.0,0,False,0,up,0.16666666666666666,13,0,0.23922480002511293,0.23922480002511293,1.0210644999751821,True,far-rnd0,52,21,14,13.125,0.5,up,16,2
269,2,True,1.4832961999927647,33.0,800.0,100.0,0,True,3,up,0.16666666666666666,67,0,1.1037716999999247,1.1037716999999247,0.5921791000291705,True,far-rnd3,45,4,2,2.5,1,up,8,0
270,1,True,1.1413769000209868,33.0,100.0,800.0,10,True,2,up,0.16666666666666666,24,0.16840580001007766,0.4352129999897443,0.6036187999998219,0.9191758000524715,True,far-160,52,2,1,1.25,3,up,1,0
271,4,True,0.7904009000048973,33.0,50.0,100.0,0,True,1,down,0.16666666666666666,25,0,0.5506274000508711,0.5506274000508711,0.43958439998095855,True,far-rnd1,46,1,1,0.625,1,down,4,0
272,3,True,1.062376799993217,33.0,100.0,800.0,10,True,2,up,0.16666666666666666,24,0.17665659997146577,0.5735771000036038,0.7502336999750696,0.4833298000157811,True,far-160,53,3,2,1.875,3,up,1,0
273,3,True,0.8275839999550954,33.0,50.0,100.0,0,True,1,down,0.16666666666666666,25,0,0.4354023999767378,0.4354023999767378,0.5825254999799654,True,far-rnd1,47,2,2,1.25,1,down,4,0
274,1,True,1.3193693000357598,33.0,33.0,100.0,0,False,0,down,0.16666666666666666,11,0,0.18919760000426322,0.18919760000426322,0.9149006000370719,False,far-rnd0,53,1,0,0.625,0.5,down,2,0
275,3,True,1.4850425999611616,33.0,800.0,100.0,0,True,3,up,0.16666666666666666,67,0,1.1054108000244014,1.1054108000244014,0.4665666000219062,True,far-rnd3,46,5,3,3.125,1,up,8,0
276,2,True,2.020931600010954,33.0,800.0,100.0,0,True,3,up,0.16666666666666666,67,0,1.1063684999826364,1.1063684999826364,0.6632723999791779,True,far-rnd3,47,6,4,3.75,1,up,8,0
277,1,True,1.841434300004039,33.0,50.0,100.0,0,True,1,down,0.16666666666666666,25,0,0.4266380000044592,0.4266380000044592,0.5901555999880657,False,far-rnd1,48,3,2,1.875,1,down,4,0
278,2,True,0.7560328000108711,33.0,100.0,800.0,10,True,2,up,0.16666666666666666,24,0.28075340000214055,0.445212300051935,0.7259657000540756,0.8204249999835156,False,far-160,54,4,2,2.5,3,up,1,0
279,2,True,1.713659499946516,33.0,33.0,100.0,0,False,0,down,0.16666666666666666,11,0,0.19282689999090508,0.19282689999090508,1.147000199998729,False,far-rnd0,54,2,0,1.25,2,down,2,0
280,1,True,2.3887326000258327,33.0,800.0,100.0,0,True,3,up,0.16666666666666666,67,0,1.09621089999564,1.09621089999564,0.5957883999799378,True,far-rnd3,48,7,5,4.375,1,up,8,0
281,2,True,1.0891423000139184,33.0,50.0,100.0,0,True,1,down,0.16666666666666666,25,0,0.43417600000975654,0.43417600000975654,0.5090204000007361,True,far-rnd1,49,4,3,2.5,1,down,4,0
282,1,True,1.6029735000338405,33.0,100.0,800.0,10,True,2,up,0.16666666666666666,24,0.1749460999853909,0.4405278000049293,0.6154738999903202,0.4213531999848783,True,far-160,55,5,3,3.125,3,up,1,0
283,2,True,1.385247599973809,33.0,33.0,100.0,0,False,0,down,0.16666666666666666,11,0,0.19429949996992946,0.19429949996992946,0.8751806999789551,True,far-rnd0,55,3,1,1.875,2,down,2,0
284,4,True,1.0875236000283621,33.0,100.0,800.0,10,True,2,up,0.16666666666666666,24,0.18487360002472997,0.45147920004092157,0.6363528000656515,0.8084256000001915,False,far-160,56,6,3,3.75,3,up,1,0
285,2,True,2.93821360002039,33.0,33.0,100.0,0,False,0,down,0.16666666666666666,11,0,0.19401039998047054,0.19401039998047054,0.7935143000213429,True,far-rnd0,56,4,2,2.5,2,down,2,0
286,1,True,1.211022800009232,33.0,50.0,100.0,0,True,1,down,0.16666666666666666,25,0,0.425687899987679,0.425687899987679,0.7327021000091918,True,far-rnd1,50,5,4,3.125,1,down,4,0
287,1,True,2.9721379000111483,33.0,800.0,100.0,0,True,3,up,0.16666666666666666,67,0,1.1003458999912255,1.1003458999912255,0.5103054000064731,True,far-rnd3,49,8,6,5.0,1,up,8,0
288,2,True,1.3385838000103831,33.0,100.0,800.0,10,True,2,up,0.16666666666666666,24,0.17716620001010597,0.44237239996436983,0.6195385999744758,1.1098615999799222,True,far-160,57,7,4,4.375,3,up,1,0
289,2,True,2.080106000008527,33.0,50.0,100.0,0,True,1,down,0.16666666666666666,25,0,0.43657910003094,0.43657910003094,0.6305701000383124,True,far-rnd1,51,6,5,3.75,1,down,4,0
290,4,True,2.0549122000229545,33.0,33.0,100.0,0,False,0,down,0.16666666666666666,11,0,0.21178980002878234,0.21178980002878234,0.5498858999926597,True,far-rnd0,57,5,3,3.125,2,down,2,0
291,3,True,1.1484185999725014,33.0,800.0,100.0,0,True,3,up,0.16666666666666666,67,0,1.1025674999691546,1.1025674999691546,0.45553059998201206,True,far-rnd3,50,9,7,5.625,1,up,8,1
292,1,True,1.3216508000041358,33.0,33.0,100.0,0,False,0,down,0.16666666666666666,11,0,0.191689100000076,0.191689100000076,0.784816499974113,True,far-rnd0,58,6,4,3.75,2,down,2,0
293,3,True,1.9734089000266977,33.0,800.0,100.0,0,True,3,down,0.16666666666666666,65,0,1.0728844000259414,1.0728844000259414,0.34842649998608977,True,far-rnd3,51,1,1,0.625,1,down,2,0
294,2,True,1.0873717999784276,33.0,50.0,100.0,0,True,1,down,0.16666666666666666,21,0,0.3709750000271015,0.3709750000271015,0.7094900999800302,False,far-rnd1,52,1,0,0.625,1,down,4,0
295,1,True,1.2145210000453517,33.0,100.0,800.0,10,True,2,up,0.16666666666666666,24,0.17308330000378191,0.43595470004947856,0.6090380000532605,0.8109600999741815,False,far-160,58,8,4,5.0,3,up,1,0
