trial,primeIter,primeCorrect,primeTime,primeDepth,stimDepth,extraDepth,driveFrames,nearToFar,diopters,direction,size,intensity,extraLatency,mainLatency,totalLatency,responseTime,correct,caseLabel,caseTrial,trialsAtStep,stepCorrect,expected,w,direction,stepsize,stepChange
1,2,True,1.3311173999682069,800.0,50.0,33.0,4,False,2,start,0.16666666666666666,60,0.07693899981677532,0.999734700191766,1.0766737000085413,0.8504446998704225,True,near-080,1,1,1,0.625,0.5,start,16,0
2,1,True,10.47005150001496,800.0,50.0,33.0,8,False,2,start,0.16666666666666666,60,0.1318071000277996,0.9805389000102878,1.1123460000380874,0.5924003999680281,True,near-160,1,1,1,0.625,0.5,start,16,0
3,1,True,3.817460799822584,800.0,50.0,33.0,12,False,2,start,0.16666666666666666,60,0.19583499990403652,0.9838610999286175,1.179696099832654,0.41940529993735254,True,near-240,1,1,1,0.625,0.5,start,16,0
4,2,True,3.9840023000724614,800.0,50.0,33.0,0,False,2,start,0.16666666666666666,60,0,1.0023240000009537,1.0023240000009537,0.5996807999908924,True,near-000,1,1,1,0.625,0.5,start,16,0
5,3,True,2.212813900085166,800.0,50.0,33.0,4,False,2,start,0.16666666666666666,44,0.08211779990233481,0.7583242000546306,0.8404419999569654,1.0407865000888705,True,near-080,2,1,1,0.625,1.0,start,16,0
6,4,True,1.4238261000718921,800.0,50.0,33.0,12,False,2,start,0.16666666666666666,44,0.21333359996788204,0.757224100176245,0.970557700144127,0.6356670998502523,True,near-240,2,1,1,0.625,1.0,start,16,0
7,1,True,2.1291907001286745,800.0,50.0,33.0,8,False,2,start,0.16666666666666666,44,0.131139500066638,0.727455300046131,0.858594800112769,0.6874936998356134,True,near-160,2,1,1,0.625,1.0,start,16,0
8,1,True,6.0891770999878645,800.0,50.0,33.0,0,False,2,start,0.16666666666666666,44,0,1.1373209999874234,1.1373209999874234,0.3493290999904275,True,near-000,2,1,1,0.625,1.0,start,16,0
9,1,True,2.98332509980537,800.0,50.0,33.0,0,False,2,start,0.16666666666666666,28,0,0.46825080015696585,0.46825080015696585,1.217402100097388,True,near-000,3,1,1,0.625,1.0,start,16,0
10,4,True,2.4256163998506963,800.0,50.0,33.0,4,False,2,start,0.16666666666666666,28,0.08705819980241358,0.507222699932754,0.5942808997351676,0.963071099948138,True,near-080,3,1,1,0.625,1.0,start,16,0
11,4,True,2.3875207998789847,800.0,50.0,33.0,8,False,2,start,0.16666666666666666,28,0.1485834999475628,0.9525741001125425,1.1011576000601053,0.4734070999547839,True,near-160,3,1,1,0.625,1.0,start,16,0
12,3,True,1.7717087999917567,800.0,50.0,33.0,12,False,2,start,0.16666666666666666,28,0.20915180002339184,0.49588419985957444,0.7050359998829663,2.146659200079739,True,near-240,3,1,1,0.625,1.0,start,16,0
13,2,True,2.031885800184682,800.0,50.0,33.0,8,False,2,start,0.16666666666666666,12,0.13694139989092946,0.23492900002747774,0.3718703999184072,1.2865732999052852,False,near-160,4,1,0,0.625,0.5,start,16,0
14,2,True,4.141822499921545,800.0,50.0,33.0,12,False,2,start,0.16666666666666666,12,0.20468119997531176,0.23038439988158643,0.4350655998568982,1.0813386000227183,True,near-240,4,1,1,0.625,0.5,start,16,0
15,2,True,2.229785199975595,800.0,50.0,33.0,0,False,2,start,0.16666666666666666,12,0,0.231908000074327,0.231908000074327,2.2664987000171095,False,near-000,4,1,0,0.625,0.5,start,16,0
16,2,True,2.006529200123623,800.0,50.0,33.0,4,False,2,start,0.16666666666666666,12,0.0758897999767214,0.2313035000115633,0.3071932999882847,1.714666100218892,True,near-080,4,1,1,0.625,0.5,start,16,0
17,2,True,1.5870513999834657,800.0,50.0,33.0,12,False,2,start,0.16666666666666666,0,0.20452860021032393,0.032874499913305044,0.23740310012362897,1.1070051998831332,False,near-240,5,1,0,0.625,0.5,start,16,0
18,2,True,1.796394299948588,800.0,50.0,33.0,0,False,2,up,0.16666666666666666,20,0,0.3526858000550419,0.3526858000550419,2.287025999976322,True,near-000,5,1,1,0.625,0.5,up,8,0
19,1,True,3.056956899818033,800.0,50.0,33.0,4,False,2,start,0.16666666666666666,0,0.0662165000103414,0.021982999984174967,0.08819949999451637,2.109385000076145,True,near-080,5,1,1,0.625,0.5,start,16,0
20,1,True,2.640057099983096,800.0,50.0,33.0,8,False,2,up,0.16666666666666666,20,0.13089919998310506,0.34230519994162023,0.4732043999247253,1.1475038998760283,True,near-160,5,1,1,0.625,0.5,up,8,0
21,1,True,2.063390500145033,800.0,50.0,33.0,12,False,2,up,0.16666666666666666,8,0.19497060007415712,0.1539873001165688,0.3489579001907259,1.2253312000539154,False,near-240,6,1,0,0.625,0.5,up,8,0
22,2,True,2.1820970000699162,800.0,50.0,33.0,8,False,2,up,0.16666666666666666,20,0.13526810007169843,0.36418380006216466,0.4994519001338631,0.9331978000700474,True,near-160,6,2,2,1.25,1,up,8,0
23,3,True,1.1131177998613566,800.0,50.0,33.0,0,False,2,up,0.16666666666666666,20,0,0.35506549989804626,0.35506549989804626,1.082511599874124,True,near-000,6,2,2,1.25,1,up,8,0
24,1,True,1.6683790001552552,800.0,50.0,33.0,4,False,2,start,0.16666666666666666,0,0.06597660016268492,0.022941800067201257,0.08891840022988617,1.928817299893126,False,near-080,6,1,0,0.625,0.5,start,16,0
25,2,True,2.338946299860254,800.0,50.0,33.0,0,False,2,up,0.16666666666666666,20,0,0.35302259982563555,0.35302259982563555,1.201038399944082,True,near-000,7,3,3,1.875,1,up,8,0
26,1,True,2.425362099893391,800.0,50.0,33.0,12,False,2,up,0.16666666666666666,8,0.1931394999846816,0.1504647999536246,0.3436042999383062,2.5982119999825954,False,near-240,7,2,0,1.25,1,up,8,0
27,2,True,2.1348214000463486,800.0,50.0,33.0,8,False,2,up,0.16666666666666666,20,0.14090290013700724,0.35571040003560483,0.49661330017261207,1.4399668001569808,False,near-160,7,3,2,1.875,1,up,8,0
28,3,True,1.9139706999994814,800.0,50.0,33.0,4,False,2,up,0.16666666666666666,8,0.07456790003925562,0.1773304999805987,0.2518984000198543,1.2772856999654323,True,near-080,7,1,1,0.625,0.5,up,8,0
29,2,True,2.48798880004324,800.0,50.0,33.0,4,False,2,up,0.16666666666666666,8,0.07695289980620146,0.1670043000485748,0.24395719985477626,1.6004671999253333,True,near-080,8,2,2,1.25,1,up,8,0
30,3,True,1.146269999910146,800.0,50.0,33.0,8,False,2,up,0.16666666666666666,20,0.13865909981541336,0.6746926999185234,0.8133517997339368,0.6054279999807477,True,near-160,8,4,3,2.5,1,up,8,0
31,2,True,1.2338737999089062,800.0,50.0,33.0,12,False,2,up,0.16666666666666666,16,0.20236120000481606,0.29178390000015497,0.494145100004971,0.9132565998006612,True,near-240,8,1,1,0.625,1,up,8,0
32,3,True,3.442643800051883,800.0,50.0,33.0,0,False,2,down,0.16666666666666666,16,0,0.3063246998935938,0.3063246998935938,1.2794047000352293,False,near-000,8,1,0,0.625,1,down,4,0
33,1,True,3.676728699821979,800.0,50.0,33.0,4,False,2,up,0.16666666666666666,8,0.06894599995575845,0.14814650011248887,0.21709250006824732,1.5786391000729054,False,near-080,9,3,2,1.875,1,up,8,0
34,3,True,3.3613928998820484,800.0,50.0,33.0,0,False,2,down,0.16666666666666666,16,0,0.29992810008116066,0.29992810008116066,1.3823895999230444,True,near-000,9,2,1,1.25,1,down,4,0
35,4,True,1.3447936000302434,800.0,50.0,33.0,8,False,2,up,0.16666666666666666,20,0.14913260005414486,0.3766534000169486,0.5257860000710934,0.8124207998625934,True,near-160,9,5,4,3.125,1,up,8,0
36,1,True,3.545471499906853,800.0,50.0,33.0,12,False,2,up,0.16666666666666666,16,0.19516110001131892,0.27818420017138124,0.47334530018270016,2.077685199910775,False,near-240,9,2,1,1.25,1,up,8,0
37,3,True,1.3590988998766989,800.0,50.0,33.0,0,False,2,down,0.16666666666666666,16,0,0.3006351999938488,0.3006351999938488,1.5281899999827147,False,near-000,10,3,1,1.875,1,down,4,0
38,2,True,1.5423096001613885,800.0,50.0,33.0,12,False,2,up,0.16666666666666666,16,0.2008326998911798,0.2962489000055939,0.4970815998967737,0.7996070000808686,True,near-240,10,3,2,1.875,1,up,8,0
39,4,True,2.0525772001128644,800.0,50.0,33.0,8,False,2,up,0.16666666666666666,20,0.15141279995441437,0.3708726998884231,0.5222854998428375,1.1086922001559287,True,near-160,10,6,5,3.75,1,up,8,0
40,1,True,4.865912700071931,800.0,50.0,33.0,4,False,2,up,0.16666666666666666,8,0.06729040015488863,0.15473659988492727,0.2220270000398159,1.3625588999129832,False,near-080,10,4,2,2.5,1,up,8,0
41,4,True,2.1740395999513566,800.0,50.0,33.0,8,False,2,down,0.16666666666666666,16,0.1520208001602441,0.30777209997177124,0.45979290013201535,0.8303063998464495,True,near-160,11,1,1,0.625,1,down,4,0
42,3,True,2.007045700214803,800.0,50.0,33.0,0,False,2,down,0.16666666666666666,16,0,0.29949300014413893,0.29949300014413893,1.1752317999489605,False,near-000,11,4,1,2.5,1,down,4,0
43,3,True,1.448849700158462,800.0,50.0,33.0,12,False,2,up,0.16666666666666666,16,0.20280209998600185,0.30120790004730225,0.5040100000333041,0.9086271999403834,True,near-240,11,4,3,2.5,1,up,8,0
44,2,True,1.3110565000679344,800.0,50.0,33.0,4,False,2,up,0.16666666666666666,8,0.0755610999185592,0.16706330003216863,0.24262439995072782,1.05808120011352,False,near-080,11,5,2,3.125,1,up,8,0
45,3,True,1.8150438000448048,800.0,50.0,33.0,12,False,2,up,0.16666666666666666,16,0.21216419991105795,0.3035957000683993,0.5157598999794573,0.8600447999779135,True,near-240,12,5,4,3.125,1,up,8,0
46,1,True,4.3497042001690716,800.0,50.0,33.0,0,False,2,up,0.16666666666666666,18,0,0.3111054999753833,0.3111054999753833,1.1635593001265079,False,near-000,12,1,0,0.625,1,up,2,0
47,1,True,2.617821699939668,800.0,50.0,33.0,8,False,2,down,0.16666666666666666,16,0.130177800077945,0.2763971001841128,0.4065749002620578,0.8210415001958609,True,near-160,12,2,2,1.25,1,down,4,0
48,2,True,1.577108700061217,800.0,50.0,33.0,4,False,2,up,0.16666666666666666,16,0.07192640006542206,0.2987168999388814,0.37064330000430346,0.879458999959752,True,near-080,12,1,1,0.625,1,up,8,0
49,4,True,2.0752266999334097,800.0,50.0,33.0,4,False,2,up,0.16666666666666666,16,0.0907441999297589,0.31358869979158044,0.40433289972133934,1.0233616000041366,True,near-080,13,2,2,1.25,1,up,8,0
50,1,True,6.562178399879485,800.0,50.0,33.0,8,False,2,down,0.16666666666666666,16,0.1301859999075532,0.2772762000095099,0.4074621999170631,1.3931233000475913,False,near-160,13,3,2,1.875,1,down,4,0
51,5,True,1.8239907000679523,800.0,50.0,33.0,12,False,2,up,0.16666666666666666,16,0.2180796000175178,0.3069003000855446,0.5249799001030624,0.8758453000336885,True,near-240,13,6,5,3.75,1,up,8,0
52,1,True,3.740163200069219,800.0,50.0,33.0,0,False,2,up,0.16666666666666666,18,0,0.3087747001554817,0.3087747001554817,2.193964699981734,False,near-000,13,2,0,1.25,2,up,2,0
53,1,True,10.36588509986177,800.0,50.0,33.0,0,False,2,up,0.16666666666666666,18,0,0.7013121000491083,0.7013121000491083,2.0651475999038666,False,near-000,14,3,0,1.875,2,up,2,0
54,2,True,5.499925000127405,800.0,50.0,33.0,12,False,2,down,0.16666666666666666,12,0.5355981001630425,0.23699050000868738,0.7725886001717299,0.6689018998295069,True,near-240,14,1,1,0.625,1,down,4,0
55,3,True,6.141967200208455,800.0,50.0,33.0,4,False,2,up,0.16666666666666666,16,0.08145749988034368,0.29662029980681837,0.37807779968716204,1.0809304001741111,True,near-080,14,3,3,1.875,1,up,8,0
56,3,True,1.2802777998149395,800.0,50.0,33.0,8,False,2,down,0.16666666666666666,16,0.1402475000359118,0.6260079999919981,0.7662555000279099,0.6302964000497013,True,near-160,14,4,3,2.5,1,down,4,0
57,1,True,3.1918419001158327,800.0,50.0,33.0,12,False,2,down,0.16666666666666666,12,0.19384349999018013,0.20844289986416698,0.4022863998543471,0.7954762999434024,False,near-240,15,2,1,1.25,1,down,4,0
58,1,True,10.184784500161186,800.0,50.0,33.0,4,False,2,down,0.16666666666666666,12,0.0690788000356406,0.214547400129959,0.2836262001655996,1.0736126000992954,False,near-080,15,1,0,0.625,1,down,4,0
59,3,True,1.0225061001256108,800.0,50.0,33.0,0,False,2,up,0.16666666666666666,18,0,0.3346758000552654,0.3346758000552654,2.00196720007807,True,near-000,15,4,1,2.5,2,up,2,0
60,1,True,43.154330200050026,800.0,50.0,33.0,8,False,2,down,0.16666666666666666,16,0.1319662998430431,0.2787681999616325,0.4107344998046756,1.0091287000104785,True,near-160,15,5,4,3.125,1,down,4,0
61,2,True,3.232158800121397,800.0,50.0,33.0,12,False,2,down,0.16666666666666666,12,0.20351639995351434,0.22822350007481873,0.43173990002833307,0.9386102000717074,False,near-240,16,3,1,1.875,1,down,4,0
62,1,True,1.7428327000234276,800.0,50.0,33.0,8,False,2,down,0.16666666666666666,16,0.13015020010061562,0.2788198001217097,0.4089700002223253,1.2027277001179755,False,near-160,16,6,4,3.75,1,down,4,0
63,1,True,1.9247573998291045,800.0,50.0,33.0,4,False,2,down,0.16666666666666666,12,0.0663421000353992,0.21700170007534325,0.28334380011074245,0.8188239000737667,False,near-080,16,2,0,1.25,1,down,4,0
64,2,True,4.412484999978915,800.0,50.0,33.0,0,False,2,up,0.16666666666666666,18,0,0.330587700009346,0.330587700009346,0.8857745002023876,True,near-000,16,5,2,3.125,2,up,2,0
65,2,True,2.116742300102487,800.0,50.0,33.0,8,False,2,down,0.16666666666666666,16,0.13681919989176095,0.2893419999163598,0.4261611998081207,0.8044524001888931,False,near-160,17,7,4,4.375,1,down,4,0
66,2,True,1.3303584998939186,800.0,50.0,33.0,0,False,2,up,0.16666666666666666,18,0,0.3308039999101311,0.3308039999101311,0.9842656999826431,True,near-000,17,6,3,3.75,2,up,2,0
67,3,True,3.228514399845153,800.0,50.0,33.0,4,False,2,up,0.16666666666666666,14,0.0795879999641329,0.2640780999790877,0.3436660999432206,0.9370501998346299,False,near-080,17,1,0,0.625,1,up,2,0
68,2,True,2.023502300027758,800.0,50.0,33.0,12,False,2,down,0.16666666666666666,12,0.20509440009482205,0.23466079984791577,0.4397551999427378,1.0577616998925805,False,near-240,17,4,1,2.5,1,down,4,0
69,1,True,2.336867699865252,800.0,50.0,33.0,0,False,2,up,0.16666666666666666,18,0,0.30872530001215637,0.30872530001215637,1.498642599908635,False,near-000,18,7,3,4.375,2,up,2,0
70,1,True,1.722438900033012,800.0,50.0,33.0,4,False,2,up,0.16666666666666666,14,0.06613410008139908,0.24259490007534623,0.3087290001567453,1.054711600067094,False,near-080,18,2,0,1.25,2,up,2,0
71,2,True,2.516106399940327,800.0,50.0,33.0,12,False,2,up,0.16666666666666666,14,0.2037482000887394,0.2663911001291126,0.470139300217852,0.6858143000863492,False,near-240,18,1,0,0.625,1,up,2,0
72,2,True,1.7882809999864548,800.0,50.0,33.0,8,False,2,down,0.16666666666666666,16,0.13555760006420314,0.28776719979941845,0.4233247998636216,0.5759074999950826,True,near-160,18,8,5,5.0,1,down,4,0
73,2,True,3.2189759998582304,800.0,50.0,33.0,4,False,2,up,0.16666666666666666,14,0.19364530011080205,0.2582877001259476,0.45193300023674965,0.7372049000114202,False,near-080,19,3,0,1.875,2,up,2,0
74,2,True,11.510976099874824,800.0,50.0,33.0,8,False,2,down,0.16666666666666666,16,0.1380917001515627,0.2945482002105564,0.4326399003621191,0.876523399958387,False,near-160,19,9,5,5.625,1,down,4,1
75,1,True,1.6487316000275314,800.0,50.0,33.0,0,False,2,up,0.16666666666666666,18,0,0.6571116999257356,0.6571116999257356,4.370612300001085,False,near-000,19,8,3,5.0,2,up,2,0
76,1,True,7.608914699871093,800.0,50.0,33.0,12,False,2,up,0.16666666666666666,14,0.1957910000346601,0.2486185000743717,0.4444095001090318,0.8103449000045657,False,near-240,19,2,0,1.25,2,up,2,0
77,1,True,3.8298231000080705,800.0,50.0,33.0,12,False,2,up,0.16666666666666666,14,0.19460199982859194,0.24481999990530312,0.43942199973389506,0.6458041998557746,False,near-240,20,3,0,1.875,2,up,2,0
78,4,True,3.161894500022754,800.0,50.0,33.0,4,False,2,up,0.16666666666666666,14,0.08477599988691509,0.2825539999175817,0.36732999980449677,1.0793401000555605,False,near-080,20,4,0,2.5,2,up,2,0
79,2,True,3.1493132000323385,800.0,50.0,33.0,0,False,2,up,0.16666666666666666,18,0,0.323351499857381,0.323351499857381,2.764551999978721,True,near-000,20,9,4,5.625,2,up,2,1
80,3,True,5.083441000198945,800.0,50.0,33.0,8,False,2,down,0.16666666666666666,16,0.1446197999175638,0.29215039988048375,0.43677019979804754,0.7650504000484943,True,near-160,20,10,6,6.25,1,down,4,1
81,3,True,2.4701429000124335,800.0,50.0,33.0,8,False,2,down,0.16666666666666666,16,0.14566670008935034,0.30340120010077953,0.4490679001901299,1.3134451999794692,False,near-160,21,11,6,6.875,1,down,4,1
82,1,True,3.397303500212729,800.0,50.0,33.0,4,False,2,up,0.16666666666666666,16,0.06622710009105504,0.27728989999741316,0.3435170000884682,0.8171586999669671,False,near-080,21,1,0,0.625,2,up,2,0
83,1,True,1.855191099923104,800.0,50.0,33.0,12,False,2,up,0.16666666666666666,14,0.19486079993657768,0.6372079998254776,0.8320687997620553,0.4904817999340594,True,near-240,21,4,1,2.5,2,up,2,0
84,4,True,1.8802251999732107,800.0,50.0,33.0,0,False,2,up,0.16666666666666666,18,0,0.33618129999376833,0.33618129999376833,0.8236884998623282,False,near-000,21,10,4,6.25,2,up,2,1
85,2,True,1.910700500011444,800.0,50.0,33.0,8,False,2,down,0.16666666666666666,16,0.17957339994609356,0.29030210012570024,0.4698755000717938,0.6905098001006991,True,near-160,22,12,7,7.5,1,down,4,1
86,3,True,1.9927242000121623,800.0,50.0,33.0,4,False,2,up,0.16666666666666666,16,0.07870970014482737,0.7134408000856638,0.7921505002304912,0.5792087998706847,False,near-080,22,2,0,1.25,2,up,2,0
87,2,True,2.2949626001063734,800.0,50.0,33.0,0,False,2,up,0.16666666666666666,19,0,0.3457812999840826,0.3457812999840826,1.0953976998571306,True,near-000,22,1,1,0.625,2,up,1,0
88,1,True,2.9878967001568526,800.0,50.0,33.0,12,False,2,up,0.16666666666666666,14,0.2901443999726325,0.2440657999832183,0.5342101999558508,0.828460100106895,True,near-240,22,5,2,3.125,2,up,2,0
89,3,True,5.2690931998658925,800.0,50.0,33.0,0,False,2,up,0.16666666666666666,19,0,0.3478490000125021,0.3478490000125021,1.1523814999964088,True,near-000,23,2,2,1.25,2,up,1,0
90,1,True,3.552281000185758,800.0,50.0,33.0,4,False,2,up,0.16666666666666666,16,0.06792780011892319,0.2778594000265002,0.3457872001454234,0.8157544999849051,False,near-080,23,3,0,1.875,2,up,2,0
91,2,True,3.4899073999840766,800.0,50.0,33.0,12,False,2,up,0.16666666666666666,14,0.19973770016804338,0.2605642001144588,0.4603019002825022,0.7319867999758571,False,near-240,23,6,2,3.75,2,up,2,0
92,1,True,1.8480054999236017,800.0,50.0,33.0,8,False,2,down,0.16666666666666666,16,0.12997139990329742,0.27714210003614426,0.4071134999394417,0.8183677999768406,True,near-160,23,13,8,8.125,1,down,4,1
93,1,True,1.221929700113833,800.0,50.0,33.0,0,False,2,up,0.16666666666666666,19,0,0.32684360002167523,0.32684360002167523,0.90766859985888,True,near-000,24,3,3,1.875,2,up,1,0
94,3,True,5.723884700099006,800.0,50.0,33.0,4,False,2,up,0.16666666666666666,16,0.0821677001658827,0.2989819999784231,0.3811497001443058,0.6995361000299454,True,near-080,24,4,1,2.5,2,up,2,0
95,3,True,1.476267300080508,800.0,50.0,33.0,12,False,2,up,0.16666666666666666,14,0.2080105000641197,0.2714482999872416,0.4794588000513613,1.4509906000457704,False,near-240,24,7,2,4.375,2,up,2,0
96,1,True,3.650246299803257,800.0,50.0,33.0,8,False,2,down,0.16666666666666666,16,0.13012370001524687,0.2768405000679195,0.40696420008316636,1.5605578999966383,True,near-160,24,14,9,8.75,1,down,4,1
97,1,True,1118.1227412999142,800.0,50.0,33.0,4,False,2,up,0.16666666666666666,16,0.06664590002037585,0.2833097998518497,0.3499556998722255,1.1659314997959882,False,near-080,25,5,1,3.125,2,up,2,0
98,1,True,3.1300762998871505,800.0,50.0,33.0,8,False,2,down,0.16666666666666666,16,0.13012699992395937,0.2758832999970764,0.40601029992103577,0.6140797999687493,True,near-160,25,15,10,9.375,1,down,4,1
99,3,True,1.8487389001529664,800.0,50.0,33.0,0,False,2,up,0.16666666666666666,19,0,0.3501065999735147,0.3501065999735147,1.7339270999655128,False,near-000,25,4,3,2.5,2,up,1,0
100,2,True,2.162159699946642,800.0,50.0,33.0,12,False,2,up,0.16666666666666666,16,0.2015073001384735,0.29306839988566935,0.49457570002414286,0.8370476998388767,True,near-240,25,1,1,0.625,2,up,2,0
101,1,True,4.172924000071362,800.0,50.0,33.0,4,False,2,up,0.16666666666666666,18,0.06852279999293387,0.31107189995236695,0.3795946999453008,0.857847300125286,True,near-080,26,1,1,0.625,2,up,2,0
102,2,True,1.5526379998773336,800.0,50.0,33.0,0,False,2,up,0.16666666666666666,19,0,0.34083579992875457,0.34083579992875457,0.9646797000896186,True,near-000,26,5,4,3.125,2,up,1,0
103,1,True,2.617548700189218,800.0,50.0,33.0,8,False,2,down,0.16666666666666666,16,0.130578099982813,0.2765864999964833,0.4071645999792963,0.8273110000882298,True,near-160,26,16,11,10.0,1,down,4,1
104,3,True,2.0774626000784338,800.0,50.0,33.0,12,False,2,up,0.16666666666666666,16,0.21177830011583865,0.3039130999241024,0.5156914000399411,0.8031264999881387,True,near-240,26,2,2,1.25,2,up,2,0
105,1,True,5.898778599919751,800.0,50.0,33.0,4,False,2,up,0.16666666666666666,18,0.06679400010034442,0.31050879997201264,0.37730280007235706,1.4845093998592347,True,near-080,27,2,2,1.25,2,up,2,0
106,1,True,2.671239399816841,800.0,50.0,33.0,0,False,2,up,0.16666666666666666,19,0,0.32222489989362657,0.32222489989362657,0.7382994999643415,True,near-000,27,6,5,3.75,2,up,1,0
107,1,True,1.9592029000632465,800.0,50.0,33.0,12,False,2,up,0.16666666666666666,16,0.19419680000282824,0.27759760012850165,0.4717944001313299,0.6998210998717695,True,near-240,27,3,3,1.875,2,up,2,0
108,3,True,2.3580610000062734,800.0,50.0,33.0,8,False,2,down,0.16666666666666666,16,0.14470950001850724,0.30491259996779263,0.4496220999862999,2.0884964000433683,False,near-160,27,17,11,10.625,1,down,4,2
109,3,True,1.62228689994663,800.0,50.0,33.0,8,False,2,down,0.16666666666666666,16,0.14649920002557337,0.3087365000974387,0.45523570012301207,0.6626756000332534,True,near-160,28,18,12,11.25,1,down,4,2
110,5,True,1.8722859998233616,800.0,50.0,33.0,0,False,2,up,0.16666666666666666,19,0,0.3776267000939697,0.3776267000939697,0.8171965999063104,False,near-000,28,7,5,4.375,2,up,1,0
111,3,True,1.2980073001235723,800.0,50.0,33.0,4,False,2,up,0.16666666666666666,18,0.0766853999812156,0.33233250002376735,0.40901790000498295,0.9941300000064075,False,near-080,28,3,2,1.875,2,up,2,0
112,1,True,2.9744969999883324,800.0,50.0,33.0,12,False,2,up,0.16666666666666666,16,0.1938690000679344,0.2816490000113845,0.4755180000793189,0.6519029999617487,True,near-240,28,4,4,2.5,2,up,2,0
113,1,True,3.3563127999659628,800.0,50.0,33.0,8,False,2,down,0.16666666666666666,16,0.13078450015746057,0.275134600000456,0.40591910015791655,0.9802673000376672,True,near-160,29,19,13,11.875,1,down,4,2
114,1,True,71.88021589978598,800.0,50.0,33.0,0,False,2,up,0.16666666666666666,19,0,0.32809259998612106,0.32809259998612106,0.7719751000404358,True,near-000,29,8,6,5.0,2,up,1,0
115,2,True,3.6736965999007225,800.0,50.0,33.0,12,False,2,up,0.16666666666666666,16,0.20592059986665845,0.29959550010971725,0.5055160999763757,0.6286336998455226,True,near-240,29,5,5,3.125,2,up,2,0
116,2,True,1.803295300109312,800.0,50.0,33.0,4,False,2,up,0.16666666666666666,18,0.07122269994579256,0.32684189989231527,0.3980645998381078,0.804315899964422,False,near-080,29,4,2,2.5,2,up,2,0
117,2,True,1.4452345999889076,800.0,50.0,33.0,4,False,2,up,0.16666666666666666,18,0.07439490011893213,0.32774569978937507,0.4021405999083072,1.2494295998476446,False,near-080,30,5,2,3.125,2,up,2,0
118,2,True,1.0913819000124931,800.0,50.0,33.0,12,False,2,up,0.16666666666666666,16,0.20431600022129714,0.29715689993463457,0.5014729001559317,0.705940900137648,True,near-240,30,6,6,3.75,2,up,2,0
119,2,True,0.9509052000939846,800.0,50.0,33.0,0,False,2,up,0.16666666666666666,19,0,0.34453539992682636,0.34453539992682636,1.2115961001254618,True,near-000,30,9,7,5.625,2,up,1,1
120,4,True,1.2974497000686824,800.0,50.0,33.0,8,False,2,down,0.16666666666666666,15,0.14534439984709024,0.2960586999543011,0.44140309980139136,0.8601164000574499,False,near-160,30,1,0,0.625,1,down,1,0
121,2,True,1.4589368000160903,800.0,50.0,33.0,8,False,2,down,0.16666666666666666,15,0.1394952000118792,0.2752318999264389,0.41472709993831813,0.6148246000520885,True,near-160,31,2,1,1.25,2,down,1,0
122,1,True,5.432951900176704,800.0,50.0,33.0,0,False,2,up,0.16666666666666666,19,0,0.32505930005572736,0.32505930005572736,1.284779499983415,True,near-000,31,10,8,6.25,2,up,1,1
123,4,True,3.352481200126931,800.0,50.0,33.0,4,False,2,up,0.16666666666666666,18,0.08099839999340475,0.3376490999944508,0.41864749998785555,1.729515900136903,True,near-080,31,6,3,3.75,2,up,2,0
124,1,True,4.485327800037339,800.0,50.0,33.0,12,False,2,down,0.16666666666666666,15,0.19372259988449514,0.260374799836427,0.4540973997209221,0.7683699999470264,True,near-240,31,1,1,0.625,2,down,1,0
125,2,True,3.0603559999726713,800.0,50.0,33.0,12,False,2,down,0.16666666666666666,15,0.20400669984519482,0.27343149995431304,0.47743819979950786,0.646528200013563,True,near-240,32,2,2,1.25,2,down,1,0
126,4,True,1.96329789981246,800.0,50.0,33.0,8,False,2,down,0.16666666666666666,15,0.14488279982469976,0.29513509990647435,0.4400178997311741,0.8399835999589413,False,near-160,32,3,1,1.875,2,down,1,0
127,3,True,1.9431149000301957,800.0,50.0,33.0,4,False,2,up,0.16666666666666666,18,0.0780552001670003,0.5176019000355154,0.5956571002025157,0.803594599943608,True,near-080,32,7,4,4.375,2,up,2,0
128,4,True,1.0763635002076626,800.0,50.0,33.0,0,False,2,up,0.16666666666666666,19,0,0.368456199998036,0.368456199998036,1.0088939999695867,False,near-000,32,11,8,6.875,2,up,1,1
129,1,True,3.633687000023201,800.0,50.0,33.0,4,False,2,up,0.16666666666666666,18,0.06739550014026463,0.3133578000124544,0.380753300152719,1.0768526000902057,False,near-080,33,8,4,5.0,2,up,2,0
130,1,True,1.7353409000206739,800.0,50.0,33.0,8,False,2,down,0.16666666666666666,15,0.13096849992871284,0.26681079994887114,0.397779299877584,0.9322480999398977,False,near-160,33,4,1,2.5,2,down,1,0
131,2,True,4.191722600022331,800.0,50.0,33.0,0,False,2,up,0.16666666666666666,19,0,0.33763780002482235,0.33763780002482235,0.6483871000818908,True,near-000,33,12,9,7.5,2,up,1,1
132,3,True,1.6028503999114037,800.0,50.0,33.0,12,False,2,down,0.16666666666666666,15,0.20643509994260967,0.2843021999578923,0.49073729990050197,0.7099732998758554,False,near-240,33,3,2,1.875,2,down,1,0
133,1,True,2.099008700111881,800.0,50.0,33.0,12,False,2,down,0.16666666666666666,15,0.19522509980015457,0.2612907001748681,0.4565157999750227,1.7884609999600798,True,near-240,34,4,3,2.5,2,down,1,0
134,1,True,3.933216000208631,800.0,50.0,33.0,4,False,2,up,0.16666666666666666,18,0.0659144998062402,0.3127006001304835,0.3786150999367237,1.0804918000940233,False,near-080,34,9,4,5.625,2,up,2,1
135,1,True,3.095227299956605,800.0,50.0,33.0,0,False,2,up,0.16666666666666666,19,0,0.3306716999504715,0.3306716999504715,0.6195772001519799,True,near-000,34,13,10,8.125,2,up,1,1
136,4,True,1.169885499868542,800.0,50.0,33.0,8,False,2,down,0.16666666666666666,15,0.14879989996552467,0.2948036000598222,0.4436035000253469,0.7192641999572515,True,near-160,34,5,2,3.125,2,down,1,0
137,4,True,3.2770227000582963,800.0,50.0,33.0,8,False,2,down,0.16666666666666666,15,0.15650159982033074,0.2923173999879509,0.44881899980828166,0.5336416000500321,True,near-160,35,6,3,3.75,2,down,1,0
138,1,True,1.7232395999599248,800.0,50.0,33.0,0,False,2,up,0.16666666666666666,19,0,0.3254954998847097,0.3254954998847097,1.3414227000903338,False,near-000,35,14,10,8.75,2,up,1,1
139,2,True,4.183649800019339,800.0,50.0,33.0,4,False,2,up,0.16666666666666666,18,0.07583680003881454,0.3253287000115961,0.40116550005041063,0.5637692001182586,True,near-080,35,10,5,6.25,2,up,2,1
140,3,True,3.554572799941525,800.0,50.0,33.0,12,False,2,down,0.16666666666666666,15,0.21412470005452633,0.29088120022788644,0.5050059002824128,0.8400427000597119,True,near-240,35,5,4,3.125,2,down,1,0
141,1,True,2.033946800045669,800.0,50.0,33.0,12,False,2,down,0.16666666666666666,15,0.19449579995125532,0.2623693998903036,0.45686519984155893,1.0126441998872906,False,near-240,36,6,4,3.75,2,down,1,0
142,1,True,15.357085400028154,800.0,50.0,33.0,8,False,2,down,0.16666666666666666,15,0.13214840018190444,0.2612441999372095,0.3933926001191139,0.7581917999777943,True,near-160,36,7,4,4.375,2,down,1,0
143,2,True,1.5367771999444813,800.0,50.0,33.0,0,False,2,up,0.16666666666666666,19,0,0.34538180008530617,0.34538180008530617,0.7499408998992294,True,near-000,36,15,11,9.375,2,up,1,1
144,1,True,1.0776830001268536,800.0,50.0,33.0,4,False,2,up,0.16666666666666666,18,0.06754499999806285,0.3081488001625985,0.37569380016066134,0.8052300000563264,False,near-080,36,11,5,6.875,2,up,2,1
145,1,True,1.9617389000486583,800.0,50.0,33.0,8,False,2,down,0.16666666666666666,15,0.13163680001161993,0.26190860010683537,0.3935454001184553,0.7194779000710696,True,near-160,37,8,5,5.0,2,down,1,0
146,1,True,2.643072000006214,800.0,50.0,33.0,12,False,2,down,0.16666666666666666,15,0.19517589989118278,0.2632986002136022,0.45847450010478497,0.734237700002268,False,near-240,37,7,4,4.375,2,down,1,0
147,2,True,1.5868878001347184,800.0,50.0,33.0,0,False,2,up,0.16666666666666666,19,0,0.3404937998857349,0.3404937998857349,0.5345298000611365,True,near-000,37,16,12,10.0,2,up,1,1
148,3,True,1.600599099881947,800.0,50.0,33.0,4,False,2,up,0.16666666666666666,18,0.07721590017899871,0.33271240000613034,0.40992830018512905,0.527942799963057,True,near-080,37,12,6,7.5,2,up,2,1
149,2,True,1.506648999871686,800.0,50.0,33.0,12,False,2,down,0.16666666666666666,15,0.20107309985905886,0.2765969999600202,0.47767009981907904,2.1461736999917775,False,near-240,38,8,4,5.0,2,down,1,0
150,3,True,3.2231954000890255,800.0,50.0,33.0,8,False,2,down,0.16666666666666666,15,0.14075520006008446,0.28695990005508065,0.4277151001151651,0.9040055999066681,False,near-160,38,9,5,5.625,2,down,1,1
151,2,True,1.3832966999616474,800.0,50.0,33.0,4,False,2,up,0.16666666666666666,18,0.07170429988764226,0.3212959000375122,0.39300019992515445,0.7613695999607444,False,near-080,38,13,6,8.125,2,up,2,1
152,1,True,2.0563550998922437,800.0,50.0,33.0,4,False,2,up,0.16666666666666666,20,0.1939107000362128,0.3453613000456244,0.5392720000818372,0.6045153997838497,True,near-080,39,1,1,0.625,2,up,2,0
153,2,True,3.480829300126061,800.0,50.0,33.0,12,False,2,down,0.16666666666666666,15,0.20029549999162555,0.2754414000082761,0.47573689999990165,0.8356828999239951,False,near-240,39,9,4,5.625,2,down,1,1
154,3,True,2.173810600070283,800.0,50.0,33.0,8,False,2,down,0.16666666666666666,15,0.13971500005573034,0.2840678000357002,0.42378280009143054,0.5723903998732567,True,near-160,39,10,6,6.25,2,down,1,1
155,1,True,2.6730780000798404,800.0,50.0,33.0,4,False,2,up,0.16666666666666666,20,0.0662059998139739,0.3390715999994427,0.4052775998134166,0.6199722001329064,True,near-080,40,2,2,1.25,2,up,2,0
156,2,True,1.8240592998918146,800.0,50.0,33.0,12,False,2,down,0.16666666666666666,15,0.20257379999384284,0.273851600009948,0.47642540000379086,0.654878499917686,False,near-240,40,10,4,6.25,2,down,1,1
157,1,True,3.297237099846825,800.0,50.0,33.0,8,False,2,down,0.16666666666666666,15,0.13144879997707903,0.2605524999089539,0.39200129988603294,0.5789471000898629,True,near-160,40,11,7,6.875,2,down,1,1
158,3,True,7.041161800036207,800.0,50.0,33.0,4,False,2,up,0.16666666666666666,20,0.08442880003713071,0.36608710000291467,0.4505159000400454,0.7550808000378311,False,near-080,41,3,2,1.875,2,up,2,0
159,2,True,1.3564096000045538,800.0,50.0,33.0,8,False,2,down,0.16666666666666666,15,0.138984999852255,0.6233651998918504,0.7623501997441053,0.902920899912715,False,near-160,41,12,7,7.5,2,down,1,1
160,1,True,4.456209500087425,800.0,50.0,33.0,4,False,2,up,0.16666666666666666,20,0.06694289995357394,0.3414127000141889,0.40835559996776283,0.5317063999827951,True,near-080,42,4,3,2.5,2,up,2,0
161,1,True,1.9194804998114705,800.0,50.0,33.0,8,False,2,down,0.16666666666666666,15,0.13002120004966855,0.2665393000934273,0.39656050014309585,1.0655048999469727,False,near-160,42,13,7,8.125,2,down,1,1
162,2,True,2.797147799981758,800.0,50.0,33.0,4,False,2,up,0.16666666666666666,20,0.07487260014750063,0.3544569001533091,0.42932950030080974,1.5041696999687701,False,near-080,43,5,3,3.125,2,up,2,0
163,1,True,2.0705715999938548,800.0,50.0,33.0,8,False,2,down,0.16666666666666666,15,0.13227559998631477,0.2672550000716001,0.39953060005791485,0.5679874999914318,True,near-160,43,14,8,8.75,2,down,1,1
164,2,True,1.2986142002046108,800.0,50.0,33.0,4,False,2,up,0.16666666666666666,20,0.0729489999357611,0.6455192000139505,0.7184681999497116,0.4279906000010669,True,near-080,44,6,4,3.75,2,up,2,0
165,3,True,1.332912900019437,800.0,50.0,33.0,8,False,2,down,0.16666666666666666,15,0.14410599996335804,0.29987500002607703,0.4439809999894351,0.5891764000989497,True,near-160,44,15,9,9.375,2,down,1,1
166,2,True,1.6374697000719607,800.0,50.0,33.0,4,False,2,up,0.16666666666666666,20,0.07364209997467697,0.3579065001104027,0.43154860008507967,0.6199762998148799,True,near-080,45,7,5,4.375,2,up,2,0
167,2,True,9.700050699990243,800.0,50.0,33.0,8,False,2,down,0.16666666666666666,15,0.13711430015973747,0.2746583998668939,0.41177270002663136,0.6070369000080973,True,near-160,45,16,10,10.0,2,down,1,1
168,2,True,5.768389499979094,800.0,50.0,33.0,4,False,2,up,0.16666666666666666,20,0.0720865000039339,0.3586985000874847,0.4307850000914186,0.6630313999485224,True,near-080,46,8,6,5.0,2,up,2,0
169,3,True,2.153200800064951,800.0,50.0,33.0,4,False,2,up,0.16666666666666666,20,0.08376089995726943,0.3624141002073884,0.44617500016465783,1.0025148000568151,False,near-080,47,9,6,5.625,2,up,2,1
170,1,True,14.176045499974862,800.0,50.0,33.0,4,False,2,up,0.16666666666666666,20,0.06620069989003241,0.6794239000882953,0.7456245999783278,0.586018499918282,False,near-080,48,10,6,6.25,2,up,2,1
171,2,True,4.504533499944955,800.0,50.0,33.0,4,False,2,up,0.16666666666666666,20,0.07550729997456074,0.36313799978233874,0.4386452997568995,0.9380767999682575,False,near-080,49,11,6,6.875,2,up,2,1
172,1,True,9.582050800090656,800.0,50.0,33.0,4,False,2,up,0.16666666666666666,20,0.06787009979598224,0.3466078999917954,0.41447799978777766,0.8822107000742108,True,near-080,50,12,7,7.5,2,up,2,1
173,2,True,1.709902900038287,800.0,50.0,33.0,4,False,2,up,0.16666666666666666,20,0.07425019983202219,0.3550765998661518,0.429326799698174,0.5835943000856787,True,near-080,51,13,8,8.125,2,up,2,1
174,1,True,1.180356299970299,800.0,50.0,33.0,4,False,2,up,0.16666666666666666,20,0.06637209979817271,0.3415808000136167,0.4079528998117894,0.9621576000936329,False,near-080,52,14,8,8.75,2,up,2,1
175,2,True,3.3789137999992818,800.0,50.0,33.0,4,False,2,up,0.16666666666666666,20,0.07104269997216761,0.35780869983136654,0.42885139980353415,0.8398963999934494,True,near-080,53,15,9,9.375,2,up,2,1
176,3,True,1.596430600155145,800.0,50.0,33.0,4,False,2,up,0.16666666666666666,20,0.07998079992830753,0.36340810009278357,0.4433889000210911,1.2578571999911219,True,near-080,54,16,10,10.0,2,up,2,1
177,3,True,14.19767350004986,800.0,50.0,33.0,4,False,2,up,0.16666666666666666,20,0.07886130013503134,0.3698536998126656,0.4487149999476969,0.6571808001026511,False,near-080,55,17,10,10.625,2,up,2,2
178,2,True,1.0113293998874724,800.0,50.0,33.0,4,False,2,up,0.16666666666666666,20,0.07674869988113642,0.3563702998217195,0.43311899970285594,0.5298325999174267,True,near-080,56,18,11,11.25,2,up,2,2
179,3,True,3.798214699840173,800.0,50.0,33.0,4,False,2,up,0.16666666666666666,20,0.08268500003032386,0.3812502999790013,0.46393530000932515,0.6997505999170244,True,near-080,57,19,12,11.875,2,up,2,2
180,2,True,1.9317959998734295,800.0,50.0,33.0,4,False,2,up,0.16666666666666666,20,0.07303530001081526,0.3535706999246031,0.42660599993541837,0.7792114000767469,True,near-080,58,20,13,12.5,2,up,2,2
181,1,True,1.7202681000344455,800.0,50.0,33.0,4,False,2,up,0.16666666666666666,20,0.06771789980120957,0.34082700009457767,0.40854489989578724,0.610019100131467,True,near-080,59,21,14,13.125,2,up,2,2
182,4,True,3.4835268000606447,800.0,50.0,33.0,4,False,2,up,0.16666666666666666,20,0.09071299992501736,0.7698178000282496,0.860530799953267,0.4152528000995517,True,near-080,60,22,15,13.75,2,up,2,2
183,3,True,2.413723000092432,800.0,50.0,33.0,4,False,2,up,0.16666666666666666,20,0.07621490000747144,0.3723464000504464,0.44856130005791783,0.6784149999730289,True,near-080,61,23,16,14.375,2,up,2,2
184,3,True,5.130346800200641,800.0,50.0,33.0,4,False,2,up,0.16666666666666666,20,0.08511870005168021,0.3713784001301974,0.4564971001818776,0.9027766000945121,True,near-080,62,24,17,15.0,2,up,2,2
