trial,primeIter,primeCorrect,primeTime,primeDepth,stimDepth,extraDepth,driveFrames,nearToFar,diopters,direction,size,intensity,extraLatency,mainLatency,totalLatency,responseTime,correct,caseLabel,caseTrial,trialsAtStep,stepCorrect,expected,w,direction,stepsize,stepChange
1,1,True,1.9971338000614196,800.0,50.0,33.0,8,False,2,start,0.16666666666666666,60,0.1316444999538362,0.9844301999546587,1.116074699908495,0.013537999941036105,True,near-160,1,1,1,0.625,0.5,start,8,0
2,3,True,1.1528174001723528,800.0,50.0,33.0,4,False,2,start,0.16666666666666666,60,0.0774836998898536,1.3103111998643726,1.3877948997542262,1.8667200999334455,True,near-080,1,1,1,0.625,0.5,start,8,0
3,1,True,2.4507152000442147,800.0,50.0,33.0,0,False,2,start,0.16666666666666666,60,0,0.984098499873653,0.984098499873653,0.2792522998061031,True,near-000,1,1,1,0.625,0.5,start,8,0
4,2,True,1.5316367000341415,800.0,50.0,33.0,12,False,2,start,0.16666666666666666,60,0.20714830001816154,0.9948955001309514,1.202043800149113,0.6915541999042034,True,near-240,1,1,1,0.625,0.5,start,8,0
5,3,True,0.885622400091961,800.0,50.0,33.0,12,False,2,start,0.16666666666666666,52,0.20601249998435378,0.8811040001455694,1.0871165001299232,0.223368400009349,True,near-240,2,1,1,0.625,1.0,start,8,0
6,2,True,1.2013493000995368,800.0,50.0,33.0,8,False,2,start,0.16666666666666666,52,0.13686610013246536,0.8676510001532733,1.0045171002857387,0.36624929984100163,True,near-160,2,1,1,0.625,1.0,start,8,0
7,1,True,1.8717437000013888,800.0,50.0,33.0,4,False,2,start,0.16666666666666666,52,0.06753319990821183,1.344406699994579,1.4119398999027908,0.7777162999846041,True,near-080,2,1,1,0.625,1.0,start,8,0
8,1,True,1.8974401000887156,800.0,50.0,33.0,0,False,2,start,0.16666666666666666,52,0,0.851398800034076,0.851398800034076,0.4146379998419434,True,near-000,2,1,1,0.625,1.0,start,8,0
9,1,True,1.5388045001309365,800.0,50.0,33.0,4,False,2,start,0.16666666666666666,44,0.06670630001462996,0.7282871000934392,0.7949934001080692,0.35922269988805056,True,near-080,3,1,1,0.625,1.0,start,8,0
10,3,True,2.0861545000225306,800.0,50.0,33.0,12,False,2,start,0.16666666666666666,44,0.20568150002509356,0.7475132001563907,0.9531947001814842,0.2136451001279056,True,near-240,3,1,1,0.625,1.0,start,8,0
11,1,True,1.6651445000898093,800.0,50.0,33.0,0,False,2,start,0.16666666666666666,44,0,0.7247035999316722,0.7247035999316722,0.4648668998852372,True,near-000,3,1,1,0.625,1.0,start,8,0
12,3,True,1.143914399901405,800.0,50.0,33.0,8,False,2,start,0.16666666666666666,44,0.14851649990305305,0.7552287001162767,0.9037452000193298,0.6181008999701589,True,near-160,3,1,1,0.625,1.0,start,8,0
13,1,True,1.5961184001062065,800.0,50.0,33.0,0,False,2,start,0.16666666666666666,36,0,0.6023232999723405,0.6023232999723405,0.5883231000043452,True,near-000,4,1,1,0.625,0.5,start,8,0
14,1,True,1.3294403001200408,800.0,50.0,33.0,12,False,2,start,0.16666666666666666,36,0.19620270002633333,0.5975307000335306,0.7937334000598639,0.5334298999514431,True,near-240,4,1,1,0.625,0.5,start,8,0
15,2,True,1.4399751999881119,800.0,50.0,33.0,4,False,2,start,0.16666666666666666,36,0.07586469990201294,0.6182695000898093,0.6941341999918222,0.3951355000026524,True,near-080,4,1,1,0.625,0.5,start,8,0
16,4,True,1.057925600092858,800.0,50.0,33.0,8,False,2,start,0.16666666666666666,36,0.14245759998448193,0.6239511999301612,0.7664087999146432,0.33629840007051826,True,near-160,4,1,1,0.625,0.5,start,8,0
17,1,True,2.463476700009778,800.0,50.0,33.0,0,False,2,start,0.16666666666666666,28,0,0.4699178000446409,0.4699178000446409,0.9362033000215888,False,near-000,5,1,0,0.625,0.5,start,8,0
18,1,True,1.3657972998917103,800.0,50.0,33.0,8,False,2,start,0.16666666666666666,28,0.13179609994404018,0.4681877000257373,0.5999837999697775,0.9529074002057314,True,near-160,5,1,1,0.625,0.5,start,8,0
19,4,True,1.1311596999876201,800.0,50.0,33.0,4,False,2,start,0.16666666666666666,28,0.3136702000629157,0.4999759001657367,0.8136461002286524,0.3104020000901073,True,near-080,5,1,1,0.625,0.5,start,8,0
20,1,True,1.255313399946317,800.0,50.0,33.0,12,False,2,start,0.16666666666666666,28,0.19507999997586012,0.4672283998224884,0.6623083997983485,0.4475971998181194,True,near-240,5,1,1,0.625,0.5,start,8,0
21,2,True,1.3731353001203388,800.0,50.0,33.0,0,False,2,up,0.16666666666666666,32,0,0.5561283999122679,0.5561283999122679,0.4894904000684619,True,near-000,6,1,1,0.625,0.5,up,4,0
22,3,True,1.25551120005548,800.0,50.0,33.0,4,False,2,start,0.16666666666666666,20,0.08302640006877482,0.3625420001335442,0.445568400202319,0.6636563998181373,True,near-080,6,1,1,0.625,0.5,start,8,0
23,1,True,1.4054672999773175,800.0,50.0,33.0,8,False,2,start,0.16666666666666666,20,0.13090540003031492,0.3463791001122445,0.4772845001425594,0.6240145999472588,True,near-160,6,1,1,0.625,0.5,start,8,0
24,2,True,1.452066200086847,800.0,50.0,33.0,12,False,2,start,0.16666666666666666,20,0.20381200010888278,0.3576280002016574,0.5614400003105402,0.43377809994854033,True,near-240,6,1,1,0.625,0.5,start,8,0
25,2,True,1.8307062999811023,800.0,50.0,33.0,12,False,2,start,0.16666666666666666,12,0.2047552999574691,0.23641579994000494,0.44117109989747405,0.8071836000308394,True,near-240,7,1,1,0.625,0.5,start,8,0
26,2,True,1.5736893999855965,800.0,50.0,33.0,8,False,2,start,0.16666666666666666,12,0.1391508998349309,0.22840899997390807,0.36755989980883896,0.7945900000631809,True,near-160,7,1,1,0.625,0.5,start,8,0
27,2,True,0.8733137999661267,800.0,50.0,33.0,0,False,2,up,0.16666666666666666,32,0,0.5490625000093132,0.5490625000093132,0.37922880006954074,True,near-000,7,2,2,1.25,1,up,4,0
28,2,True,2.3677233001217246,800.0,50.0,33.0,4,False,2,start,0.16666666666666666,12,0.07987669995054603,0.2262614998035133,0.3061381997540593,1.8750316998921335,False,near-080,7,1,0,0.625,0.5,start,8,0
29,3,True,1.136972100008279,800.0,50.0,33.0,8,False,2,start,0.16666666666666666,4,0.14374620001763105,0.11644570017233491,0.26019190018996596,0.7685824001673609,False,near-160,8,1,0,0.625,0.5,start,8,0
30,1,True,1.4977009000722319,800.0,50.0,33.0,12,False,2,start,0.16666666666666666,4,0.19547319994308054,0.08380050002597272,0.27927369996905327,0.8041874000336975,True,near-240,8,1,1,0.625,0.5,start,8,0
31,1,True,0.9809434001799673,800.0,50.0,33.0,4,False,2,up,0.16666666666666666,16,0.0664315999019891,0.2780721001327038,0.3445037000346929,1.0782290999777615,False,near-080,8,1,0,0.625,0.5,up,4,0
32,1,True,1.274498599814251,800.0,50.0,33.0,0,False,2,up,0.16666666666666666,32,0,0.5322571999859065,0.5322571999859065,0.6094998000189662,True,near-000,8,3,3,1.875,1,up,4,0
33,2,True,1.0214154999703169,800.0,50.0,33.0,0,False,2,down,0.16666666666666666,30,0,0.5182418001350015,0.5182418001350015,0.43735069991089404,True,near-000,9,1,1,0.625,1,down,2,0
34,1,True,1.276769099989906,800.0,50.0,33.0,8,False,2,up,0.16666666666666666,6,0.13130399980582297,0.1186714000068605,0.24997539981268346,0.822589399991557,False,near-160,9,1,0,0.625,0.5,up,2,0
35,1,True,1.1659873998723924,800.0,50.0,33.0,4,False,2,up,0.16666666666666666,16,0.1728572000283748,0.2771893998142332,0.450046599842608,0.5272049999330193,True,near-080,9,2,1,1.25,1,up,4,0
36,2,True,1.200423200149089,800.0,50.0,33.0,12,False,2,start,0.16666666666666666,0,0.20240670000202954,0.03193329996429384,0.23433999996632338,1.178077300079167,False,near-240,9,1,0,0.625,0.5,start,8,1
37,3,True,0.8509974998887628,800.0,50.0,33.0,8,False,2,up,0.16666666666666666,6,0.1493064002133906,0.14465989987365901,0.2939663000870496,1.4035470001399517,False,near-160,10,2,0,1.25,1,up,2,0
38,1,True,1.9094392999541014,800.0,50.0,33.0,0,False,2,down,0.16666666666666666,30,0,0.5031184998806566,0.5031184998806566,0.681737800128758,True,near-000,10,2,2,1.25,1,down,2,0
39,2,True,2.074984500184655,800.0,50.0,33.0,4,False,2,up,0.16666666666666666,16,0.07634269981645048,0.2992437998764217,0.37558649969287217,0.6565711000002921,True,near-080,10,3,2,1.875,1,up,4,0
40,2,True,2.904674000106752,800.0,50.0,33.0,12,False,2,up,0.16666666666666666,2,0.2054000000935048,0.063049899879843,0.2684498999733478,0.9687018000986427,False,near-240,10,1,0,0.625,0.5,up,2,0
41,2,True,1.095400799997151,800.0,50.0,33.0,4,False,2,up,0.16666666666666666,16,0.0731965999584645,0.28952670004218817,0.36272330000065267,0.8134057000279427,True,near-080,11,4,3,2.5,1,up,4,0
42,1,True,1.748226399999112,800.0,50.0,33.0,8,False,2,up,0.16666666666666666,8,0.13133280002512038,0.15099010011181235,0.28232290013693273,0.7747468000743538,False,near-160,11,1,0,0.625,1,up,2,0
43,1,True,2.390794900013134,800.0,50.0,33.0,0,False,2,down,0.16666666666666666,30,0,0.49921669997274876,0.49921669997274876,0.9800381001550704,False,near-000,11,3,2,1.875,1,down,2,0
44,1,True,1.3786085001192987,800.0,50.0,33.0,12,False,2,up,0.16666666666666666,2,0.19522619992494583,0.052135400008410215,0.24736159993335605,1.1594587999861687,False,near-240,11,2,0,1.25,1,up,2,0
45,2,True,1.5133265999611467,800.0,50.0,33.0,4,False,2,up,0.16666666666666666,16,0.07436299999244511,0.2889187999535352,0.3632817999459803,0.7411313999909908,True,near-080,12,5,4,3.125,1,up,4,0
46,1,True,1.5344140999950469,800.0,50.0,33.0,8,False,2,up,0.16666666666666666,8,0.13029909995384514,0.1503161999862641,0.28061529994010925,0.7102779999841005,True,near-160,12,2,1,1.25,1,up,2,0
47,2,True,2.4856089998502284,800.0,50.0,33.0,0,False,2,down,0.16666666666666666,30,0,0.519394600065425,0.519394600065425,0.5202281000092626,True,near-000,12,4,3,2.5,1,down,2,0
48,4,True,0.9495560999494046,800.0,50.0,33.0,12,False,2,up,0.16666666666666666,4,0.21780409989878535,0.12414429988712072,0.3419483997859061,0.7257585998158902,False,near-240,12,1,0,0.625,1,up,2,0
49,4,True,1.226821299875155,800.0,50.0,33.0,0,False,2,down,0.16666666666666666,30,0,0.5416686001699418,0.5416686001699418,0.5059141998644918,True,near-000,13,5,4,3.125,1,down,2,0
50,2,True,1.1744255998637527,800.0,50.0,33.0,8,False,2,up,0.16666666666666666,8,0.13564540003426373,0.16159019991755486,0.2972355999518186,0.8055366999469697,True,near-160,13,3,2,1.875,1,up,2,0
51,2,True,1.2146191999781877,800.0,50.0,33.0,4,False,2,up,0.16666666666666666,16,0.07214069995097816,0.3007618000265211,0.37290249997749925,0.675844200188294,False,near-080,13,6,4,3.75,1,up,4,0
52,1,True,1.487595499958843,800.0,50.0,33.0,12,False,2,up,0.16666666666666666,4,0.19507279992103577,0.5762378999497741,0.7713106998708099,0.4149562001693994,False,near-240,13,2,0,1.25,1,up,2,0
53,4,True,0.9673003000207245,800.0,50.0,33.0,8,False,2,up,0.16666666666666666,8,0.14800110016949475,0.1838383001741022,0.33183940034359694,0.7182725998573005,False,near-160,14,4,2,2.5,1,up,2,0
54,2,True,0.9601206998340786,800.0,50.0,33.0,0,False,2,down,0.16666666666666666,30,0,0.5120041999034584,0.5120041999034584,0.5874169999733567,True,near-000,14,6,5,3.75,1,down,2,0
55,3,True,1.611874199938029,800.0,50.0,33.0,4,False,2,up,0.16666666666666666,16,0.08106479980051517,0.2985426001250744,0.37960739992558956,0.9111815001815557,False,near-080,14,7,4,4.375,1,up,4,0
56,3,True,1.1504285999108106,800.0,50.0,33.0,12,False,2,up,0.16666666666666666,6,0.2029522000811994,0.1463342998176813,0.3492864998988807,0.7818877999670804,False,near-240,14,1,0,0.625,1,up,2,0
57,1,True,1.4248740999028087,800.0,50.0,33.0,12,False,2,up,0.16666666666666666,6,0.19629399990662932,0.11657739989459515,0.31287139980122447,0.9146569001022726,False,near-240,15,2,0,1.25,1,up,2,0
58,1,True,1.598275399999693,800.0,50.0,33.0,4,False,2,up,0.16666666666666666,16,0.06609340012073517,0.277942500077188,0.3440359001979232,0.8390595999080688,False,near-080,15,8,4,5.0,1,up,4,0
59,1,True,1.3771177001763135,800.0,50.0,33.0,0,False,2,down,0.16666666666666666,28,0,0.4690664999652654,0.4690664999652654,0.4785056000109762,True,near-000,15,1,1,0.625,1,down,2,0
60,2,True,1.1760486999992281,800.0,50.0,33.0,8,False,2,up,0.16666666666666666,8,0.14139080001041293,0.1685593998990953,0.30995019990950823,1.0276037999428809,False,near-160,15,5,2,3.125,1,up,2,0
61,1,True,1.6674854999873787,800.0,50.0,33.0,12,False,2,up,0.16666666666666666,10,0.19522890006192029,0.1859654001891613,0.3811943002510816,0.7675999000202864,False,near-240,16,1,0,0.625,1,up,4,0
62,2,True,2.9548594001680613,800.0,50.0,33.0,8,False,2,up,0.16666666666666666,10,0.14060050016269088,0.19433360011316836,0.33493410027585924,0.7661468998994678,True,near-160,16,1,1,0.625,1,up,2,0
63,2,True,1.2958235000260174,800.0,50.0,33.0,4,False,2,up,0.16666666666666666,16,0.07331170001998544,0.2971683000214398,0.37048000004142523,0.6488016000948846,True,near-080,16,9,5,5.625,1,up,4,1
64,2,True,1.6060349999461323,800.0,50.0,33.0,0,False,2,down,0.16666666666666666,28,0,0.49301499989815056,0.49301499989815056,0.6222078998107463,True,near-000,16,2,2,1.25,1,down,2,0
65,4,True,1.0600484998431057,800.0,50.0,33.0,0,False,2,down,0.16666666666666666,28,0,0.5080428998917341,0.5080428998917341,0.8859237998258322,False,near-000,17,3,2,1.875,1,down,2,0
66,1,True,1.4327914000023156,800.0,50.0,33.0,8,False,2,up,0.16666666666666666,10,0.12926280009560287,0.1796417001169175,0.30890450021252036,0.8537485999986529,False,near-160,17,2,1,1.25,1,up,2,0
67,2,True,1.00621879985556,800.0,50.0,33.0,12,False,2,up,0.16666666666666666,10,0.20110789989121258,0.5820286001544446,0.7831365000456572,0.25591050018556416,True,near-240,17,2,1,1.25,1,up,4,0
68,3,True,0.8893021000549197,800.0,50.0,33.0,4,False,2,up,0.16666666666666666,16,0.0757517998572439,0.29857850004918873,0.37433029990643263,1.8855657000094652,True,near-080,17,10,6,6.25,1,up,4,1
69,2,True,1.2736437001731247,800.0,50.0,33.0,8,False,2,up,0.16666666666666666,10,0.14022479997947812,0.19981800019741058,0.3400428001768887,0.9966372000053525,False,near-160,18,3,1,1.875,1,up,2,0
70,1,True,3.582996299955994,800.0,50.0,33.0,12,False,2,up,0.16666666666666666,10,0.1944363999646157,0.18158239987678826,0.37601879984140396,0.9119979999959469,True,near-240,18,3,2,1.875,1,up,4,0
71,2,True,1.1699946001172066,800.0,50.0,33.0,0,False,2,down,0.16666666666666666,28,0,0.4875197000801563,0.4875197000801563,0.6082865998614579,True,near-000,18,4,3,2.5,1,down,2,0
72,1,True,0.907041999977082,800.0,50.0,33.0,4,False,2,up,0.16666666666666666,16,0.06760219996795058,0.6457934998907149,0.7133956998586655,0.49879570002667606,False,near-080,18,11,6,6.875,1,up,4,1
73,2,True,0.9599412998650223,800.0,50.0,33.0,0,False,2,down,0.16666666666666666,28,0,0.4841028999071568,0.4841028999071568,0.5222404999658465,True,near-000,19,5,4,3.125,1,down,2,0
74,1,True,1.0588125998619944,800.0,50.0,33.0,12,False,2,up,0.16666666666666666,10,0.19480599998496473,0.18030330003239214,0.3751093000173569,0.7439637000206858,True,near-240,19,4,3,2.5,1,up,4,0
75,1,True,1.235322599997744,800.0,50.0,33.0,8,False,2,up,0.16666666666666666,10,0.1314979000017047,0.18233420001342893,0.3138321000151336,0.8551857001148164,False,near-160,19,4,1,2.5,1,up,2,0
76,1,True,1.0784981998149306,800.0,50.0,33.0,4,False,2,up,0.16666666666666666,16,0.06700399983674288,0.28059270000085235,0.3475966998375952,0.9362027000170201,False,near-080,19,12,6,7.5,1,up,4,1
77,1,True,1.8497689999639988,800.0,50.0,33.0,12,False,2,up,0.16666666666666666,10,0.19610779988579452,0.18031120020896196,0.3764190000947565,1.2774599001277238,False,near-240,20,5,3,3.125,1,up,4,0
78,1,True,1.5447278001811355,800.0,50.0,33.0,8,False,2,up,0.16666666666666666,14,0.13076029997318983,0.2441513000521809,0.3749116000253707,0.6192132998257875,False,near-160,20,1,0,0.625,1,up,4,0
79,3,True,1.7481609999667853,800.0,50.0,33.0,0,False,2,down,0.16666666666666666,28,0,0.4951799002010375,0.4951799002010375,0.48850400000810623,True,near-000,20,6,5,3.75,1,down,2,0
80,3,True,0.8835689001716673,800.0,50.0,33.0,4,False,2,up,0.16666666666666666,18,0.08319749985821545,0.3266020000446588,0.40979949990287423,0.6472473999019712,False,near-080,20,1,0,0.625,1,up,2,0
81,2,True,1.0520327999256551,800.0,50.0,33.0,8,False,2,up,0.16666666666666666,14,0.13700139988213778,0.2623573001474142,0.399358700029552,0.6010264998767525,False,near-160,21,2,0,1.25,1,up,4,0
82,1,True,1.2338020000606775,800.0,50.0,33.0,0,False,2,down,0.16666666666666666,26,0,0.43811740004457533,0.43811740004457533,0.5372235998511314,True,near-000,21,1,1,0.625,1,down,2,0
83,2,True,2.0974343998823315,800.0,50.0,33.0,12,False,2,up,0.16666666666666666,10,0.20366130000911653,0.19406810007058084,0.39772940007969737,0.6317524001933634,True,near-240,21,6,4,3.75,1,up,4,0
84,1,True,0.9034166999626905,800.0,50.0,33.0,4,False,2,up,0.16666666666666666,18,0.06646889983676374,0.31000249995850027,0.376471399795264,0.8735687998123467,False,near-080,21,2,0,1.25,1,up,2,0
85,2,True,0.9179744001012295,800.0,50.0,33.0,8,False,2,up,0.16666666666666666,22,0.13760020001791418,0.3847901001572609,0.5223903001751751,0.3828720001038164,True,near-160,22,1,1,0.625,1,up,8,0
86,1,True,1.1949624000117183,800.0,50.0,33.0,12,False,2,up,0.16666666666666666,10,0.19512759987264872,0.18192080012522638,0.3770483999978751,0.7272499999962747,False,near-240,22,7,4,4.375,1,up,4,0
87,3,True,1.2915705998893827,800.0,50.0,33.0,4,False,2,up,0.16666666666666666,20,0.07776879984885454,0.3616120999213308,0.43938089977018535,0.672646600054577,False,near-080,22,1,0,0.625,1,up,2,0
88,1,True,1.323530500056222,800.0,50.0,33.0,0,False,2,down,0.16666666666666666,26,0,0.43793399981223047,0.43793399981223047,0.6413785999175161,True,near-000,22,2,2,1.25,1,down,2,0
89,3,True,1.7639415001031011,800.0,50.0,33.0,8,False,2,up,0.16666666666666666,22,0.14239079994149506,0.4041798999533057,0.5465706998948008,2.4061823000665754,True,near-160,23,2,2,1.25,1.0,up,8,0
90,1,True,1.2627063998952508,800.0,50.0,33.0,0,False,2,down,0.16666666666666666,26,0,0.4392097000963986,0.4392097000963986,1.1223518999759108,False,near-000,23,3,2,1.875,1,down,2,0
91,2,True,1.0516800000332296,800.0,50.0,33.0,4,False,2,up,0.16666666666666666,20,0.07354080001823604,0.3600946001242846,0.43363540014252067,0.8169150999747217,False,near-080,23,2,0,1.25,1,up,2,0
92,1,True,1.2954789998475462,800.0,50.0,33.0,12,False,2,up,0.16666666666666666,10,0.32704790006391704,0.18595770001411438,0.5130056000780314,0.49940570001490414,True,near-240,23,8,5,5.0,1,up,4,0
93,3,True,1.050418599974364,800.0,50.0,33.0,4,False,2,up,0.16666666666666666,24,0.08313279994763434,0.43411760008893907,0.5172504000365734,0.5757542999926955,True,near-080,24,1,1,0.625,1,up,4,0
94,1,True,1.3809124999679625,800.0,50.0,33.0,12,False,2,up,0.16666666666666666,10,0.19649810018017888,0.18287219991907477,0.37937030009925365,0.5169230001047254,False,near-240,24,9,5,5.625,1,up,4,1
95,2,True,1.6478245998732746,800.0,50.0,33.0,0,False,2,down,0.16666666666666666,26,0,0.45843520015478134,0.45843520015478134,0.7561244999524206,False,near-000,24,4,2,2.5,1,down,2,0
96,2,True,1.2021476000081748,800.0,50.0,33.0,8,False,2,up,0.16666666666666666,22,0.13924379996024072,0.38670679996721447,0.5259505999274552,0.3611667000222951,True,near-160,24,3,3,1.875,1.0,up,8,0
97,4,True,0.8846605999860913,800.0,50.0,33.0,0,False,2,down,0.16666666666666666,26,0,0.46729930001311004,0.46729930001311004,0.7352511000353843,True,near-000,25,5,3,3.125,1,down,2,0
98,3,True,1.0382377000059932,800.0,50.0,33.0,12,False,2,up,0.16666666666666666,10,0.20376249984838068,0.21276350016705692,0.4165260000154376,1.8888749000616372,False,near-240,25,10,5,6.25,1,up,4,1
99,2,True,1.0596511999610811,800.0,50.0,33.0,8,False,2,down,0.16666666666666666,18,0.13668829994276166,0.32865909999236465,0.4653473999351263,2.1960708999540657,True,near-160,25,1,1,0.625,0.5,down,4,0
100,2,True,0.9054562000092119,800.0,50.0,33.0,4,False,2,up,0.16666666666666666,24,0.07050290005281568,0.42756300000473857,0.49806590005755424,0.6732747999485582,False,near-080,25,2,1,1.25,1,up,4,0
101,2,True,1.1760253000538796,800.0,50.0,33.0,0,False,2,down,0.16666666666666666,26,0,0.4500168999657035,0.4500168999657035,1.8108181001152843,False,near-000,26,6,3,3.75,1,down,2,0
102,1,True,1.4866580001544207,800.0,50.0,33.0,4,False,2,up,0.16666666666666666,24,0.06693989993073046,0.4087396999821067,0.47567959991283715,0.4250215000938624,True,near-080,26,3,2,1.875,1,up,4,0
103,3,True,0.9174852999858558,800.0,50.0,33.0,12,False,2,up,0.16666666666666666,14,0.20793640008196235,0.26994379982352257,0.4778801999054849,0.46596199995838106,True,near-240,26,1,1,0.625,1,up,4,0
104,1,True,1.7356568998657167,800.0,50.0,33.0,8,False,2,down,0.16666666666666666,18,0.1323557998985052,0.3122771999333054,0.4446329998318106,0.5817068999167532,False,near-160,26,2,1,1.25,1,down,4,0
105,1,True,2.5057222000323236,800.0,50.0,33.0,12,False,2,up,0.16666666666666666,14,0.19595029996708035,0.2501046000979841,0.44605490006506443,0.7481494001112878,True,near-240,27,2,2,1.25,1,up,4,0
106,3,True,1.111152899917215,800.0,50.0,33.0,0,False,2,down,0.16666666666666666,26,0,0.5560230000410229,0.5560230000410229,0.4850494998972863,True,near-000,27,7,4,4.375,1,down,2,0
107,2,True,1.0001831001136452,800.0,50.0,33.0,8,False,2,down,0.16666666666666666,18,0.14077920001000166,0.31936799990944564,0.4601471999194473,0.8162799999117851,False,near-160,27,3,1,1.875,1,down,4,0
108,3,True,0.9331978999543935,800.0,50.0,33.0,4,False,2,up,0.16666666666666666,24,0.07912439992651343,0.4260937001090497,0.5052181000355631,0.5031997000332922,True,near-080,27,4,3,2.5,1,up,4,0
109,4,True,1.1128918000031263,800.0,50.0,33.0,4,False,2,up,0.16666666666666666,24,0.08003000007010996,0.5940432001370937,0.6740732002072036,0.3596830000169575,True,near-080,28,5,4,3.125,1,up,4,0
110,3,True,1.071257800096646,800.0,50.0,33.0,0,False,2,down,0.16666666666666666,26,0,0.4549175000283867,0.4549175000283867,0.7491550999693573,False,near-000,28,8,4,5.0,1,down,2,0
111,2,True,0.7109566000290215,800.0,50.0,33.0,8,False,2,down,0.16666666666666666,18,0.13971420004963875,0.32585360016673803,0.4655678002163768,0.529869900085032,True,near-160,28,4,2,2.5,1,down,4,0
112,1,True,1.3723274997901171,800.0,50.0,33.0,12,False,2,up,0.16666666666666666,14,0.1957674000877887,0.24599049985408783,0.44175789994187653,0.9215810000896454,True,near-240,28,3,3,1.875,1,up,4,0
113,2,True,1.4111792999319732,800.0,50.0,33.0,0,False,2,down,0.16666666666666666,26,0,0.4524519999977201,0.4524519999977201,0.6033733000513166,False,near-000,29,9,4,5.625,1,down,2,1
114,1,True,0.9409207999706268,800.0,50.0,33.0,12,False,2,down,0.16666666666666666,12,0.19467090000398457,0.5760772000066936,0.7707481000106782,0.30378249986097217,True,near-240,29,1,1,0.625,1,down,2,0
115,1,True,1.6483428999781609,800.0,50.0,33.0,8,False,2,down,0.16666666666666666,18,0.1304359999485314,0.3051867999602109,0.4356227999087423,0.6514842000324279,True,near-160,29,5,3,3.125,1,down,4,0
116,3,True,0.6504377999808639,800.0,50.0,33.0,4,False,2,up,0.16666666666666666,24,0.07415220001712441,0.4335127000231296,0.507664900040254,0.5763542000204325,True,near-080,29,6,5,3.75,1,up,4,0
117,1,True,1.375434400048107,800.0,50.0,33.0,4,False,2,down,0.16666666666666666,22,0.06888570007868111,0.3696595998480916,0.4385452999267727,0.6790847000665963,False,near-080,30,1,0,0.625,1,down,2,0
118,3,True,1.0796530998777598,800.0,50.0,33.0,12,False,2,down,0.16666666666666666,12,0.20469760010018945,0.23087080009281635,0.4355684001930058,0.42313050013035536,True,near-240,30,2,2,1.25,1,down,2,0
119,2,True,1.0830799001269042,800.0,50.0,33.0,0,False,2,up,0.16666666666666666,27,0,0.47404580004513264,0.47404580004513264,0.690425300039351,True,near-000,30,1,1,0.625,1,up,1,0
120,2,True,1.79956219997257,800.0,50.0,33.0,8,False,2,down,0.16666666666666666,18,0.14140389999374747,0.32708390010520816,0.46848780009895563,0.43029500008560717,True,near-160,30,6,4,3.75,1,down,4,0
121,1,True,1.0875117999967188,800.0,50.0,33.0,12,False,2,down,0.16666666666666666,12,0.19483639998361468,0.20954749989323318,0.40438389987684786,1.1252334001474082,True,near-240,31,3,3,1.875,1,down,2,0
122,2,True,1.0912746998947114,800.0,50.0,33.0,8,False,2,down,0.16666666666666666,18,0.1362576000392437,0.32043319987133145,0.45669079991057515,0.442011599894613,True,near-160,31,7,5,4.375,1,down,4,0
123,2,True,2.103127900045365,800.0,50.0,33.0,4,False,2,down,0.16666666666666666,22,0.07397700008004904,0.39011649996973574,0.4640935000497848,0.5841616000980139,True,near-080,31,2,1,1.25,1,down,2,0
124,2,True,0.938607000047341,800.0,50.0,33.0,0,False,2,up,0.16666666666666666,27,0,0.47198870009742677,0.47198870009742677,0.6929025000426918,True,near-000,31,2,2,1.25,2,up,1,0
125,1,True,1.2044561000075191,800.0,50.0,33.0,8,False,2,down,0.16666666666666666,18,0.12920679990202188,0.31017199996858835,0.43937879987061024,0.8335096000228077,True,near-160,32,8,6,5.0,1,down,4,0
126,3,True,1.0809744000434875,800.0,50.0,33.0,4,False,2,down,0.16666666666666666,22,0.08097409992478788,0.38885920005850494,0.4698332999832928,0.5160779999569058,True,near-080,32,3,2,1.875,1,down,2,0
127,3,True,1.4371009999886155,800.0,50.0,33.0,12,False,2,down,0.16666666666666666,10,0.20955100003629923,0.21395130013115704,0.42350230016745627,0.4643651999067515,True,near-240,32,1,1,0.625,1,down,2,0
128,2,True,0.9345692999195307,800.0,50.0,33.0,0,False,2,up,0.16666666666666666,27,0,0.47252639988437295,0.47252639988437295,0.8177640000358224,True,near-000,32,3,3,1.875,2,up,1,0
129,2,True,0.9628755999729037,800.0,50.0,33.0,8,False,2,down,0.16666666666666666,18,0.13781210011802614,0.3274326999671757,0.46524480008520186,1.3513124000746757,False,near-160,33,9,6,5.625,1,down,4,1
130,1,True,11.729856600053608,800.0,50.0,33.0,0,False,2,up,0.16666666666666666,27,0,0.45129030011594296,0.45129030011594296,0.9874829999171197,False,near-000,33,4,3,2.5,2,up,1,0
131,1,True,1.1667162999510765,800.0,50.0,33.0,4,False,2,down,0.16666666666666666,22,0.06718230014666915,0.3745905999094248,0.44177290005609393,0.5434294999577105,True,near-080,33,4,3,2.5,1,down,2,0
132,2,True,1.373649099841714,800.0,50.0,33.0,12,False,2,down,0.16666666666666666,10,0.2027442001271993,0.19617110001854599,0.3989153001457453,1.560213399818167,False,near-240,33,2,1,1.25,1,down,2,0
133,4,True,2.990541100036353,800.0,50.0,33.0,8,False,2,down,0.16666666666666666,18,0.14782199985347688,0.7556618000380695,0.9034837998915464,0.16643520002253354,True,near-160,34,10,7,6.25,1,down,4,1
134,1,True,1.6162711000069976,800.0,50.0,33.0,12,False,2,down,0.16666666666666666,10,0.19537890003994107,0.1808356000110507,0.3762145000509918,0.9023879000451416,False,near-240,34,3,1,1.875,1,down,2,0
135,1,True,2.458814699901268,800.0,50.0,33.0,4,False,2,down,0.16666666666666666,22,0.06713040010072291,0.37494260002858937,0.4420730001293123,0.7881519999355078,True,near-080,34,5,4,3.125,1,down,2,0
136,3,True,1.0969426999799907,800.0,50.0,33.0,0,False,2,up,0.16666666666666666,27,0,0.48682560003362596,0.48682560003362596,0.559221199946478,False,near-000,34,5,3,3.125,2,up,1,0
137,1,True,1.5690019000321627,800.0,50.0,33.0,4,False,2,down,0.16666666666666666,22,0.0675296001136303,0.37689339998178184,0.44442300009541214,0.7694347000215203,False,near-080,35,6,4,3.75,1,down,2,0
138,2,True,0.7928476999513805,800.0,50.0,33.0,8,False,2,down,0.16666666666666666,18,0.1388914999552071,0.33505980018526316,0.47395130014047027,0.4873206000775099,True,near-160,35,11,8,6.875,1,down,4,1
139,3,True,1.0509631999302655,800.0,50.0,33.0,0,False,2,up,0.16666666666666666,27,0,0.4851687999907881,0.4851687999907881,0.4387729000300169,True,near-000,35,6,4,3.75,2,up,1,0
140,2,True,1.1040403000079095,800.0,50.0,33.0,12,False,2,down,0.16666666666666666,10,0.2044473998248577,0.19509529997594655,0.39954269980080426,1.8392844998743385,False,near-240,35,4,1,2.5,1,down,2,0
141,1,True,1.403904400067404,800.0,50.0,33.0,8,False,2,down,0.16666666666666666,16,0.130175800062716,0.27505709999240935,0.40523290005512536,0.921563999960199,True,near-160,36,1,1,0.625,1,down,2,0
142,2,True,1.6479569000657648,800.0,50.0,33.0,0,False,2,up,0.16666666666666666,27,0,0.4700794001109898,0.4700794001109898,0.800212699919939,False,near-000,36,7,4,4.375,2,up,1,0
143,2,True,1.0368629000149667,800.0,50.0,33.0,4,False,2,down,0.16666666666666666,22,0.07761960010975599,0.38823889987543225,0.46585849998518825,0.519253300037235,True,near-080,36,7,5,4.375,1,down,2,0
144,1,True,3.4793936000205576,800.0,50.0,33.0,12,False,2,up,0.16666666666666666,11,0.19549100007861853,0.20092600001953542,0.39641700009815395,3.1863850001245737,True,near-240,36,1,1,0.625,1,up,1,0
145,2,True,1.4357871999964118,800.0,50.0,33.0,8,False,2,down,0.16666666666666666,16,0.1361515000462532,0.2891292998101562,0.42528079985640943,0.5036913999356329,True,near-160,37,2,2,1.25,1,down,2,0
146,1,True,0.8611474002245814,800.0,50.0,33.0,12,False,2,up,0.16666666666666666,11,0.19526979979127645,0.1970255000051111,0.39229529979638755,0.6696882001124322,False,near-240,37,2,1,1.25,2,up,1,0
147,3,True,1.1269863999914378,800.0,50.0,33.0,0,False,2,up,0.16666666666666666,27,0,0.8296946999616921,0.8296946999616921,0.044213199988007545,True,near-000,37,8,5,5.0,2,up,1,0
148,2,True,3.362433700123802,800.0,50.0,33.0,4,False,2,down,0.16666666666666666,22,0.07255919999442995,0.38175900001078844,0.4543182000052184,0.4900603999849409,False,near-080,37,8,5,5.0,1,down,2,0
149,1,True,1.24361989996396,800.0,50.0,33.0,4,False,2,down,0.16666666666666666,22,0.06682850001379848,0.3757587999571115,0.44258729997090995,0.8553829998709261,False,near-080,38,9,5,5.625,1,down,2,1
150,3,True,1.7878634999506176,800.0,50.0,33.0,8,False,2,down,0.16666666666666666,16,0.14721570000983775,0.30242009996436536,0.4496357999742031,0.8303892998956144,True,near-160,38,3,3,1.875,1,down,2,0
151,1,True,1.2677420999389142,800.0,50.0,33.0,12,False,2,up,0.16666666666666666,11,0.19557629991322756,0.19406270002946258,0.38963899994269013,0.5056878000032157,False,near-240,38,3,1,1.875,2,up,1,0
152,2,True,1.1162797999568284,800.0,50.0,33.0,8,False,2,down,0.16666666666666666,14,0.1394549000542611,0.26020070002414286,0.39965560007840395,0.5091178000438958,False,near-160,39,1,0,0.625,1,down,2,0
153,2,True,0.897069200174883,800.0,50.0,33.0,12,False,2,up,0.16666666666666666,11,0.20350489998236299,0.21236980007961392,0.4158747000619769,0.9506779999937862,True,near-240,39,4,2,2.5,2,up,1,0
154,2,True,1.3275411000940949,800.0,50.0,33.0,4,False,2,down,0.16666666666666666,22,0.0769521000329405,0.6781589000020176,0.7551110000349581,0.3849611000623554,True,near-080,39,10,6,6.25,1,down,2,1
155,3,True,0.8606446001213044,800.0,50.0,33.0,12,False,2,up,0.16666666666666666,11,0.20802000002004206,0.22371749999001622,0.4317375000100583,0.7946180000435561,False,near-240,40,5,2,3.125,2,up,1,0
156,1,True,0.7918883999809623,800.0,50.0,33.0,4,False,2,down,0.16666666666666666,22,0.0663848000112921,0.3731536997947842,0.4395384998060763,0.4880506999325007,True,near-080,40,11,7,6.875,1,down,2,1
157,1,True,1.2740596001967788,800.0,50.0,33.0,8,False,2,down,0.16666666666666666,14,0.13130300003103912,0.2421879000030458,0.3734909000340849,0.6072777002118528,True,near-160,40,2,1,1.25,1,down,2,0
158,2,True,1.4927926999516785,800.0,50.0,33.0,8,False,2,down,0.16666666666666666,14,0.13938449998386204,0.2627140998374671,0.4020985998213291,0.42443150002509356,True,near-160,41,3,2,1.875,1,down,2,0
159,2,True,1.0844741999171674,800.0,50.0,33.0,4,False,2,down,0.16666666666666666,22,0.07489859987981617,0.3948661999311298,0.469764799810946,0.48319870000705123,False,near-080,41,12,7,7.5,1,down,2,1
160,2,True,0.980296399910003,800.0,50.0,33.0,12,False,2,up,0.16666666666666666,11,0.20044619985856116,0.2092352001927793,0.40968140005134046,1.238938600057736,False,near-240,41,6,2,3.75,2,up,1,0
161,4,True,0.6379304998554289,800.0,50.0,33.0,12,False,2,up,0.16666666666666666,11,0.20931369997560978,0.22659399989061058,0.43590769986622036,0.9684015999082476,False,near-240,42,7,2,4.375,2,up,1,0
162,4,True,1.6508847000077367,800.0,50.0,33.0,8,False,2,down,0.16666666666666666,14,0.15219840011559427,0.2848620000295341,0.43706040014512837,0.5849900001194328,False,near-160,42,4,2,2.5,1,down,2,0
163,4,True,0.8855814998969436,800.0,50.0,33.0,4,False,2,down,0.16666666666666666,22,0.08558430010452867,0.40758279990404844,0.4931671000085771,0.5303835000377148,True,near-080,42,13,8,8.125,1,down,2,1
164,2,True,1.6962321000173688,800.0,50.0,33.0,12,False,2,up,0.16666666666666666,12,0.1982305001001805,0.22623879997991025,0.42446930008009076,0.5690737999975681,True,near-240,43,1,1,0.625,2,up,1,0
165,3,True,0.662674100138247,800.0,50.0,33.0,8,False,2,down,0.16666666666666666,14,0.14161260006949306,0.2634757000487298,0.40508830011822283,0.4842684001196176,True,near-160,43,5,3,3.125,1,down,2,0
166,2,True,1.036587999900803,800.0,50.0,33.0,4,False,2,down,0.16666666666666666,22,0.07095080008730292,0.3877034999895841,0.458654300076887,0.7194804002065212,False,near-080,43,14,8,8.75,1,down,2,1
167,2,True,0.9584590999875218,800.0,50.0,33.0,8,False,2,down,0.16666666666666666,14,0.46800120011903346,0.25664520007558167,0.7246464001946151,0.55707550002262,True,near-160,44,6,4,3.75,1,down,2,0
168,3,True,1.1016730000264943,800.0,50.0,33.0,4,False,2,down,0.16666666666666666,22,0.07671370008029044,0.404197100084275,0.48091080016456544,0.6671442999504507,False,near-080,44,15,8,9.375,1,down,2,1
169,1,True,2.3679643000941724,800.0,50.0,33.0,12,False,2,up,0.16666666666666666,12,0.19335730001330376,0.21396890003234148,0.40732620004564524,0.8274282000493258,False,near-240,44,2,1,1.25,2,up,1,0
170,4,True,1.3897654998581856,800.0,50.0,33.0,8,False,2,down,0.16666666666666666,14,0.1560027999803424,0.2772408998571336,0.433243699837476,0.4953902999404818,True,near-160,45,7,5,4.375,1,down,2,0
171,1,True,1.1852927999570966,800.0,50.0,33.0,4,False,2,up,0.16666666666666666,23,0.06779500003904104,0.3863458998966962,0.45414089993573725,0.9123015999794006,True,near-080,45,1,1,0.625,1,up,1,0
172,2,True,1.2196678998880088,800.0,50.0,33.0,12,False,2,up,0.16666666666666666,12,0.20334669994190335,0.23553609987720847,0.4388827998191118,0.8449985999614,False,near-240,45,3,1,1.875,2,up,1,0
173,3,True,0.8962626999709755,800.0,50.0,33.0,4,False,2,up,0.16666666666666666,23,0.07632860005833209,0.4085913999006152,0.4849199999589473,0.45885830000042915,True,near-080,46,2,2,1.25,2,up,1,0
174,1,True,1.0809302998241037,800.0,50.0,33.0,12,False,2,up,0.16666666666666666,12,0.19326500012539327,0.21027899999171495,0.4035440001171082,0.601440800121054,False,near-240,46,4,1,2.5,2,up,1,0
175,2,True,1.2761089999694377,800.0,50.0,33.0,8,False,2,down,0.16666666666666666,14,0.13684769999235868,0.2608658999670297,0.3977135999593884,0.5759058000985533,False,near-160,46,8,5,5.0,1,down,2,0
176,1,True,0.9558900999836624,800.0,50.0,33.0,8,False,2,down,0.16666666666666666,14,0.1305833999067545,0.638588699977845,0.7691720998845994,0.47727660019882023,False,near-160,47,9,5,5.625,1,down,2,1
177,2,True,1.1785448000300676,800.0,50.0,33.0,4,False,2,up,0.16666666666666666,23,0.0701888999901712,0.4121415000408888,0.48233040003106,1.1907619999255985,True,near-080,47,3,3,1.875,2,up,1,0
178,2,True,1.2367903001140803,800.0,50.0,33.0,12,False,2,up,0.16666666666666666,12,0.20118459989316761,0.23547539999708533,0.43665999989025295,0.5899720001034439,True,near-240,47,5,2,3.125,2,up,1,0
179,1,True,1.7123910000082105,800.0,50.0,33.0,8,False,2,down,0.16666666666666666,14,0.13190539996139705,0.24576689978130162,0.37767229974269867,0.6204345999285579,False,near-160,48,10,5,6.25,1,down,2,1
180,4,True,0.8980916000436991,800.0,50.0,33.0,4,False,2,up,0.16666666666666666,23,0.0901302001439035,0.4226569999009371,0.5127872000448406,0.5533037001732737,False,near-080,48,4,3,2.5,2,up,1,0
181,4,True,2.109582500066608,800.0,50.0,33.0,12,False,2,up,0.16666666666666666,12,0.2150769999716431,0.4570577999111265,0.6721347998827696,0.6847449000924826,True,near-240,48,6,3,3.75,2,up,1,0
182,1,True,1.3459033998660743,800.0,50.0,33.0,12,False,2,up,0.16666666666666666,12,0.19412799994461238,0.213921400019899,0.4080493999645114,0.9879924000706524,False,near-240,49,7,3,4.375,2,up,1,0
183,1,True,1.109055900014937,800.0,50.0,33.0,4,False,2,up,0.16666666666666666,23,0.06618490000255406,0.7245120001025498,0.7906969001051039,0.30550920008681715,True,near-080,49,5,4,3.125,2,up,1,0
184,3,True,1.786808299832046,800.0,50.0,33.0,8,False,2,up,0.16666666666666666,15,0.1435287999920547,0.28325700014829636,0.42678580014035106,0.5826827001292259,False,near-160,49,1,0,0.625,1,up,1,0
185,2,True,0.9070459001231939,800.0,50.0,33.0,12,False,2,up,0.16666666666666666,12,0.2065489999949932,0.23116550012491643,0.43771450011990964,0.6560935999732465,False,near-240,50,8,3,5.0,2,up,1,0
186,1,True,1.2356449998915195,800.0,50.0,33.0,4,False,2,up,0.16666666666666666,23,0.06531429989263415,0.3906404001172632,0.45595470000989735,0.6894786001648754,True,near-080,50,6,5,3.75,2,up,1,0
187,3,True,2.203601000132039,800.0,50.0,33.0,8,False,2,up,0.16666666666666666,15,0.1452184000518173,0.28986270003952086,0.43508110009133816,0.3736864998936653,True,near-160,50,2,1,1.25,2,up,1,0
188,2,True,0.9162573998328298,800.0,50.0,33.0,8,False,2,up,0.16666666666666666,15,0.7219581999816,0.27939440007321537,1.0013526000548154,0.38344270014204085,True,near-160,51,3,2,1.875,2,up,1,0
189,1,True,1.6774697001092136,800.0,50.0,33.0,4,False,2,up,0.16666666666666666,23,0.06640979996882379,0.38748509995639324,0.45389489992521703,0.8938465998508036,True,near-080,51,7,6,4.375,2,up,1,0
190,1,True,2.059980799909681,800.0,50.0,33.0,12,False,2,up,0.16666666666666666,12,0.19461240014061332,0.2148665999993682,0.4094790001399815,1.3719164999201894,False,near-240,51,9,3,5.625,2,up,1,1
191,1,True,7.356248399941251,800.0,50.0,33.0,4,False,2,up,0.16666666666666666,23,0.06879839999601245,0.39221149985678494,0.4610098998527974,0.6002048999071121,True,near-080,52,8,7,5.0,2,up,1,0
192,2,True,0.8409669999964535,800.0,50.0,33.0,8,False,2,up,0.16666666666666666,15,0.14274579985067248,0.2785406999755651,0.42128649982623756,0.4416398999746889,True,near-160,52,4,3,2.5,2,up,1,0
193,2,True,0.7335496000014246,800.0,50.0,33.0,12,False,2,up,0.16666666666666666,13,0.20197660010308027,0.24622740014456213,0.4482040002476424,0.5798150000628084,False,near-240,52,1,0,0.625,2,up,1,0
194,2,True,1.5465245000086725,800.0,50.0,33.0,8,False,2,up,0.16666666666666666,15,0.1373278999235481,0.27845560014247894,0.41578350006602705,0.8406802001409233,True,near-160,53,5,4,3.125,2,up,1,0
195,3,True,1.6906767999753356,800.0,50.0,33.0,12,False,2,up,0.16666666666666666,13,0.21242620004341006,0.25044910004362464,0.4628753000870347,0.5343969999812543,True,near-240,53,2,1,1.25,2,up,1,0
196,2,True,1.248888999922201,800.0,50.0,33.0,8,False,2,up,0.16666666666666666,15,0.13959369994699955,0.274316499941051,0.41391019988805056,1.115332999965176,False,near-160,54,6,4,3.75,2,up,1,0
197,4,True,0.5739867000374943,800.0,50.0,33.0,12,False,2,up,0.16666666666666666,13,0.21453519980423152,0.27106539998203516,0.4856005997862667,0.38844310003332794,False,near-240,54,3,1,1.875,2,up,1,0
198,2,True,0.6940459001343697,800.0,50.0,33.0,8,False,2,up,0.16666666666666666,15,0.13709089998155832,0.28669759980402887,0.4237884997855872,0.6294624998699874,False,near-160,55,7,4,4.375,2,up,1,0
199,1,True,0.7442359998822212,800.0,50.0,33.0,12,False,2,up,0.16666666666666666,13,0.19496780005283654,0.22938910010270774,0.4243569001555443,0.8084263000637293,False,near-240,55,4,1,2.5,2,up,1,0
200,2,True,0.8023957998957485,800.0,50.0,33.0,12,False,2,up,0.16666666666666666,13,0.2010588999837637,0.25051290006376803,0.4515718000475317,0.43285420001484454,False,near-240,56,5,1,3.125,2,up,1,0
201,2,True,1.8040970000438392,800.0,50.0,33.0,8,False,2,up,0.16666666666666666,15,0.14033610001206398,0.2781476001255214,0.4184837001375854,0.39069220004603267,True,near-160,56,8,5,5.0,2,up,1,0
202,2,True,0.7845584999304265,800.0,50.0,33.0,12,False,2,up,0.16666666666666666,14,0.20337799983099103,0.2598413999658078,0.4632193997967988,0.32853689999319613,False,near-240,57,1,0,0.625,2,up,1,0
203,3,True,0.9043662000913173,800.0,50.0,33.0,12,False,2,up,0.16666666666666666,14,0.2071811999194324,0.2736041999887675,0.4807853999081999,0.5802767998538911,True,near-240,58,2,1,1.25,2,up,1,0
204,2,True,1.6061532001476735,800.0,50.0,33.0,12,False,2,up,0.16666666666666666,14,0.19976309989579022,0.2608425000216812,0.4606055999174714,0.5232971000950783,True,near-240,59,3,2,1.875,2,up,1,0
205,3,True,1.4493741998448968,800.0,50.0,33.0,12,False,2,up,0.16666666666666666,14,0.21016299980692565,0.27457670005969703,0.4847396998666227,0.4568286999128759,True,near-240,60,4,3,2.5,2,up,1,0
206,1,True,1.2752742001321167,800.0,50.0,33.0,12,False,2,up,0.16666666666666666,14,0.19397030002437532,0.24438709998503327,0.4383574000094086,0.49218049994669855,True,near-240,61,5,4,3.125,2,up,1,0
207,2,True,1.3859395000617951,800.0,50.0,33.0,12,False,2,up,0.16666666666666666,14,0.2041668000165373,0.26224900013767183,0.46641580015420914,0.8243193998932838,False,near-240,62,6,4,3.75,2,up,1,0
208,2,True,1.2775663998909295,800.0,50.0,33.0,12,False,2,up,0.16666666666666666,14,0.2067967001348734,0.25835309992544353,0.4651498000603169,0.6331529000308365,False,near-240,63,7,4,4.375,2,up,1,0
209,2,True,0.9246544998604804,800.0,50.0,33.0,12,False,2,up,0.16666666666666666,14,0.20487389992922544,0.26062309998087585,0.4654969999101013,1.257073299959302,True,near-240,64,8,5,5.0,2,up,1,0
