trial,primeIter,primeCorrect,primeTime,primeDepth,stimDepth,extraDepth,driveFrames,nearToFar,diopters,direction,size,intensity,extraLatency,mainLatency,totalLatency,responseTime,correct,caseLabel,caseTrial,trialsAtStep,stepCorrect,expected,w,direction,stepsize,stepChange
1,1,True,2.9883457000833005,800.0,800.0,50.0,0,False,0,start,0.16666666666666666,60,0,0.9932353999465704,0.9932353999465704,0.37328939989674836,True,near-rndm,1,1,1,0.625,0.5,start,16,0
2,2,True,1.1667678999947384,800.0,50.0,33.0,15,False,2,start,0.16666666666666666,60,0.25229099998250604,1.0166398999281228,1.2689308999106288,0.3389910999685526,True,near-240,1,1,1,0.625,0.5,start,16,0
3,2,True,1.4639405999332666,800.0,50.0,33.0,5,False,2,start,0.16666666666666666,60,0.09629979997407645,1.0194527000421658,1.1157525000162423,0.3602604999905452,True,near-080,1,1,1,0.625,0.5,start,16,0
4,1,True,3.9520854000002146,800.0,50.0,33.0,10,False,2,start,0.16666666666666666,60,0.1706222000066191,1.0065564999822527,1.1771786999888718,0.08908730000257492,True,near-160,1,1,1,0.625,0.5,start,16,0
5,4,True,1.1634197999956086,800.0,50.0,33.0,0,False,2,start,0.16666666666666666,60,0,1.0232802999671549,1.0232802999671549,0.3508193000452593,True,near-000,1,1,1,0.625,0.5,start,16,0
6,1,True,1.2958410999272019,800.0,33.0,50.0,0,False,3,start,0.16666666666666666,60,0,0.9843758000060916,0.9843758000060916,0.5164570999331772,True,near-rnd3,1,1,1,0.625,0.5,start,16,0
7,2,True,1.396926200017333,800.0,100.0,50.0,0,False,1,start,0.16666666666666666,60,0,1.0212773999664932,1.0212773999664932,0.3985773999011144,True,near-rnd2,1,1,1,0.625,0.5,start,16,0
8,2,True,0.9771174999186769,800.0,100.0,50.0,0,False,1,start,0.16666666666666666,44,0,0.7531116000609472,0.7531116000609472,0.5096319000003859,True,near-rnd2,2,1,1,0.625,1.0,start,16,0
9,3,True,1.547654900001362,800.0,50.0,33.0,15,False,2,start,0.16666666666666666,44,0.2604534999700263,0.7822065999498591,1.0426600999198854,0.3350609999615699,True,near-240,2,1,1,0.625,1.0,start,16,0
10,3,True,1.1990672999527305,800.0,800.0,50.0,0,False,0,start,0.16666666666666666,44,0,0.7514919999521226,0.7514919999521226,0.4323148999828845,True,near-rndm,2,1,1,0.625,1.0,start,16,0
11,1,True,1.8963881999952719,800.0,33.0,50.0,0,False,3,start,0.16666666666666666,44,0,0.7269357999321073,0.7269357999321073,0.7336237999843433,True,near-rnd3,2,1,1,0.625,1.0,start,16,0
12,1,True,5.560342299984768,800.0,50.0,33.0,10,False,2,start,0.16666666666666666,44,0.1739756999304518,0.7484816999640316,0.9224573998944834,0.3973184999777004,True,near-160,2,1,1,0.625,1.0,start,16,0
13,2,True,5.829296000069007,800.0,50.0,33.0,5,False,2,start,0.16666666666666666,44,0.09003690001554787,0.7579371000174433,0.8479740000329912,0.325301899923943,True,near-080,2,1,1,0.625,1.0,start,16,0
14,3,True,1.272687999997288,800.0,50.0,33.0,0,False,2,start,0.16666666666666666,44,0,0.7531848000362515,0.7531848000362515,0.43592000007629395,True,near-000,2,1,1,0.625,1.0,start,16,0
15,2,True,1.0778605999657884,800.0,50.0,33.0,0,False,2,start,0.16666666666666666,28,0,0.5044120999518782,0.5044120999518782,0.7493908999022096,True,near-000,3,1,1,0.625,1.0,start,16,0
16,3,True,2.3451733000110835,800.0,50.0,33.0,10,False,2,start,0.16666666666666666,28,0.17482970003038645,0.49847410002257675,0.6733038000529632,0.3897861000150442,True,near-160,3,1,1,0.625,1.0,start,16,0
17,2,True,4.207715700031258,800.0,50.0,33.0,15,False,2,start,0.16666666666666666,28,0.2567981999600306,0.5043294000206515,0.7611275999806821,0.7749018999747932,True,near-240,3,1,1,0.625,1.0,start,16,0
18,2,True,2.6907091999892145,800.0,50.0,33.0,5,False,2,start,0.16666666666666666,28,0.09329109999816865,0.49621529993601143,0.5895063999341801,0.5596051999600604,True,near-080,3,1,1,0.625,1.0,start,16,0
19,2,True,3.9552948999917135,800.0,100.0,50.0,0,False,1,start,0.16666666666666666,28,0,0.49950679996982217,0.49950679996982217,0.7972328000469133,True,near-rnd2,3,1,1,0.625,1.0,start,16,0
20,1,True,4.178440200048499,800.0,800.0,50.0,0,False,0,start,0.16666666666666666,28,0,0.47815360000822693,0.47815360000822693,0.6489851999795064,True,near-rndm,3,1,1,0.625,1.0,start,16,0
21,3,True,1.2444950999924913,800.0,33.0,50.0,0,False,3,start,0.16666666666666666,28,0,0.4960171999409795,0.4960171999409795,3.004289000062272,False,near-rnd3,3,1,0,0.625,1.0,start,16,0
22,1,True,1.4354538000188768,800.0,50.0,33.0,0,False,2,start,0.16666666666666666,12,0,0.23239260003902018,0.23239260003902018,1.3149886999744922,False,near-000,4,1,0,0.625,0.5,start,16,0
23,1,True,1.6678683999925852,800.0,100.0,50.0,0,False,1,start,0.16666666666666666,12,0,0.2321849000873044,0.2321849000873044,1.8630195000441745,True,near-rnd2,4,1,1,0.625,0.5,start,16,0
24,1,True,2.6120444999542087,800.0,50.0,33.0,10,False,2,start,0.16666666666666666,12,0.17307279992382973,0.235249700024724,0.40832249994855374,1.6489117000019178,False,near-160,4,1,0,0.625,0.5,start,16,0
25,2,True,2.635030600009486,800.0,33.0,50.0,0,False,3,up,0.16666666666666666,36,0,0.6100756999803707,0.6100756999803707,0.9040682999184355,True,near-rnd3,4,1,1,0.625,0.5,up,8,0
26,2,True,1.2967758999438956,800.0,800.0,50.0,0,False,0,start,0.16666666666666666,12,0,0.22796739998739213,0.22796739998739213,4.735332099953666,True,near-rndm,4,1,1,0.625,0.5,start,16,0
27,1,True,1.6806099999230355,800.0,50.0,33.0,5,False,2,start,0.16666666666666666,12,0.0873695999616757,0.23262590006925166,0.31999550003092736,1.6147046000696719,True,near-080,4,1,1,0.625,0.5,start,16,0
28,4,True,1.7930795999709517,800.0,50.0,33.0,15,False,2,start,0.16666666666666666,12,0.270637399982661,0.25330640003085136,0.5239438000135124,3.7907195000443608,False,near-240,4,1,0,0.625,0.5,start,16,0
29,2,True,1.0964066000888124,800.0,100.0,50.0,0,False,1,start,0.16666666666666666,0,0,0.0435118000023067,0.0435118000023067,3.1444756999844685,False,near-rnd2,5,1,0,0.625,0.5,start,16,0
30,3,True,1.961939200060442,800.0,50.0,33.0,5,False,2,start,0.16666666666666666,0,0.10952669999096543,0.05430919991340488,0.1638358999043703,8.594425200019032,False,near-080,5,1,0,0.625,0.5,start,16,0
31,1,True,2.5963462999789044,800.0,50.0,33.0,0,False,2,up,0.16666666666666666,20,0,0.3532696000766009,0.3532696000766009,1.7075304000172764,False,near-000,5,1,0,0.625,0.5,up,8,0
32,2,True,3.2848889000015333,800.0,800.0,50.0,0,False,0,start,0.16666666666666666,0,0,0.03515499993227422,0.03515499993227422,6.926270099938847,False,near-rndm,5,1,0,0.625,0.5,start,16,0
33,1,True,2.1064475000603124,800.0,33.0,50.0,0,False,3,up,0.16666666666666666,36,0,0.5953893999103457,0.5953893999103457,1.3854747000150383,False,near-rnd3,5,2,1,1.25,1,up,8,0
34,1,True,2.924614999908954,800.0,50.0,33.0,15,False,2,up,0.16666666666666666,20,0.25441199995111674,0.35947369993664324,0.61388569988776,0.6281956000020728,True,near-240,5,1,1,0.625,0.5,up,8,0
35,2,True,5.016594200045802,800.0,50.0,33.0,10,False,2,up,0.16666666666666666,20,0.17806440009735525,0.3711253000656143,0.5491897001629695,0.489962000050582,True,near-160,5,1,1,0.625,0.5,up,8,0
36,2,True,1.3140348000451922,800.0,50.0,33.0,0,False,2,up,0.16666666666666666,20,0,0.37610449991188943,0.37610449991188943,1.3373547999653965,True,near-000,6,2,1,1.25,1,up,8,0
37,2,True,1.5318075999384746,800.0,50.0,33.0,5,False,2,up,0.16666666666666666,8,0.0996124999364838,0.18573809997178614,0.28535059990826994,2.135095899924636,False,near-080,6,1,0,0.625,0.5,up,8,0
38,4,True,1.1776258000172675,800.0,50.0,33.0,10,False,2,up,0.16666666666666666,20,0.18076150002889335,0.39559720002580434,0.5763587000546977,0.5747441999847069,True,near-160,6,2,2,1.25,1,up,8,0
39,2,True,2.306020400021225,800.0,50.0,33.0,15,False,2,up,0.16666666666666666,20,0.2603027999866754,0.3735643000109121,0.6338670999975875,0.5608975000213832,True,near-240,6,2,2,1.25,1,up,8,0
40,2,True,1.122271699947305,800.0,100.0,50.0,0,False,1,up,0.16666666666666666,8,0,0.18943799997214228,0.18943799997214228,0.9828424999723211,False,near-rnd2,6,1,0,0.625,0.5,up,8,0
41,2,True,1.0702030000975356,800.0,33.0,50.0,0,False,3,up,0.16666666666666666,36,0,0.6051385999890044,0.6051385999890044,0.9422724000178277,False,near-rnd3,6,3,1,1.875,1,up,8,0
42,2,True,3.871562400017865,800.0,800.0,50.0,0,False,0,up,0.16666666666666666,8,0,0.16961999994236976,0.16961999994236976,2.4930012999102473,False,near-rndm,6,1,0,0.625,0.5,up,8,0
43,1,True,1.347568300087005,800.0,50.0,33.0,0,False,2,up,0.16666666666666666,20,0,0.3586280000163242,0.3586280000163242,3.003161499975249,True,near-000,7,3,2,1.875,1,up,8,0
44,2,True,1.2957255000947043,800.0,50.0,33.0,5,False,2,up,0.16666666666666666,8,0.09381989995017648,0.18798020004760474,0.2818000999977812,1.3791773000266403,True,near-080,7,2,1,1.25,1,up,8,0
45,1,True,1.6972797000780702,800.0,50.0,33.0,10,False,2,up,0.16666666666666666,20,0.16936990001704544,0.36230679997242987,0.5316766999894753,0.5305441999807954,True,near-160,7,3,3,1.875,1,up,8,0
46,3,True,1.3959572999738157,800.0,100.0,50.0,0,False,1,up,0.16666666666666666,8,0,0.19868739997036755,0.19868739997036755,0.9503092999802902,True,near-rnd2,7,2,1,1.25,1,up,8,0
47,1,True,3.9507668999722227,800.0,800.0,50.0,0,False,0,up,0.16666666666666666,8,0,0.16044710006099194,0.16044710006099194,1.0355592999840155,False,near-rndm,7,2,0,1.25,1,up,8,0
48,1,True,1.7765967999584973,800.0,50.0,33.0,15,False,2,up,0.16666666666666666,20,0.25865109998267144,0.36631349998060614,0.6249645999632776,0.5218041999032721,True,near-240,7,3,3,1.875,1,up,8,0
49,2,True,1.119107099948451,800.0,33.0,50.0,0,False,3,up,0.16666666666666666,36,0,0.613975299987942,0.613975299987942,0.8480528000509366,False,near-rnd3,7,4,1,2.5,1,up,8,0
50,3,True,5.10995469999034,800.0,50.0,33.0,10,False,2,down,0.16666666666666666,16,0.1907704999903217,0.31807979999575764,0.5088502999860793,1.7442611999576911,False,near-160,8,1,0,0.625,1,down,4,0
51,2,True,7.82887229998596,800.0,100.0,50.0,0,False,1,up,0.16666666666666666,8,0,0.18570559995714575,0.18570559995714575,1.9490332999266684,False,near-rnd2,8,3,1,1.875,1,up,8,0
52,1,True,1.6406438000267372,800.0,33.0,50.0,0,False,3,up,0.16666666666666666,44,0,0.730528200045228,0.730528200045228,0.5735071999952197,True,near-rnd3,8,1,1,0.625,1,up,8,0
53,1,True,2.9535206999862567,800.0,50.0,33.0,5,False,2,up,0.16666666666666666,8,0.08869980007875711,0.17261869995854795,0.26131850003730506,2.778413000050932,True,near-080,8,3,2,1.875,1,up,8,0
54,1,True,1.8297920000040904,800.0,50.0,33.0,0,False,2,up,0.16666666666666666,20,0,0.36325030005536973,0.36325030005536973,1.3985919000115246,False,near-000,8,4,2,2.5,1,up,8,0
55,2,True,3.1238657999783754,800.0,50.0,33.0,15,False,2,down,0.16666666666666666,16,0.26043060002848506,0.3168671999592334,0.5772977999877185,1.2383444999577478,True,near-240,8,1,1,0.625,1,down,4,0
56,1,True,4.012345499941148,800.0,800.0,50.0,0,False,0,up,0.16666666666666666,16,0,0.2808105000294745,0.2808105000294745,0.8629364999942482,True,near-rndm,8,1,1,0.625,1,up,8,0
57,2,True,1.340616500005126,800.0,33.0,50.0,0,False,3,up,0.16666666666666666,44,0,0.7347943000495434,0.7347943000495434,0.6347225999925286,True,near-rnd3,9,2,2,1.25,1,up,8,0
58,1,True,4.290556800086051,800.0,50.0,33.0,5,False,2,up,0.16666666666666666,8,0.08770699996966869,0.17691289994399995,0.26461989991366863,0.85059479996562,False,near-080,9,4,2,2.5,1,up,8,0
59,1,True,1.7653199000051245,800.0,50.0,33.0,0,False,2,up,0.16666666666666666,20,0,0.3575099000008777,0.3575099000008777,1.3505387000041083,False,near-000,9,5,2,3.125,1,up,8,0
60,1,True,5.103623699978925,800.0,50.0,33.0,15,False,2,down,0.16666666666666666,16,0.2518358000088483,0.302788499975577,0.5546242999844253,0.4781121000414714,True,near-240,9,2,2,1.25,1,down,4,0
61,1,True,3.776036199997179,800.0,50.0,33.0,10,False,2,down,0.16666666666666666,16,0.17389600002206862,0.30032839998602867,0.4742244000080973,0.5551325000124052,True,near-160,9,2,1,1.25,1,down,4,0
62,1,True,3.033057800028473,800.0,100.0,50.0,0,False,1,up,0.16666666666666666,8,0,0.1652646999573335,0.1652646999573335,0.7993507999926805,False,near-rnd2,9,4,1,2.5,1,up,8,0
63,4,True,1.868056800100021,800.0,800.0,50.0,0,False,0,up,0.16666666666666666,16,0,0.3250533000100404,0.3250533000100404,0.7129448000341654,True,near-rndm,9,2,2,1.25,1,up,8,0
64,4,True,1.357733300072141,800.0,50.0,33.0,15,False,2,down,0.16666666666666666,16,0.2702541999751702,0.353872700012289,0.6241268999874592,0.7439651999156922,True,near-240,10,3,3,1.875,1,down,4,0
65,3,True,1.339245400042273,800.0,100.0,50.0,0,False,1,up,0.16666666666666666,16,0,0.3144764999160543,0.3144764999160543,0.8761814000317827,False,near-rnd2,10,1,0,0.625,1,up,8,0
66,1,True,1.1082148000132293,800.0,50.0,33.0,5,False,2,up,0.16666666666666666,8,0.08856299996841699,0.16848019999451935,0.25704319996293634,1.413877599989064,False,near-080,10,5,2,3.125,1,up,8,0
67,3,True,2.5488905999809504,800.0,50.0,33.0,10,False,2,down,0.16666666666666666,16,0.1861644999589771,0.314378899987787,0.5005433999467641,0.48871160007547587,True,near-160,10,3,2,1.875,1,down,4,0
68,3,True,7.623227300005965,800.0,33.0,50.0,0,False,3,up,0.16666666666666666,44,0,0.7532925000414252,0.7532925000414252,0.5487342000706121,True,near-rnd3,10,3,3,1.875,1,up,8,0
69,2,True,1175.651304100058,800.0,800.0,50.0,0,False,0,up,0.16666666666666666,16,0,0.28988629998639226,0.28988629998639226,0.7552593000000343,True,near-rndm,10,3,3,1.875,1,up,8,0
70,1,True,22.842278099968098,800.0,50.0,33.0,0,False,2,up,0.16666666666666666,28,0,0.48830179998185486,0.48830179998185486,0.8891232999740168,False,near-000,10,1,0,0.625,1,up,8,0
71,3,True,4.3928805000614375,800.0,33.0,50.0,0,False,3,down,0.16666666666666666,40,0,0.6740662000374869,0.6740662000374869,0.9948657000204548,True,near-rnd3,11,1,1,0.625,1,down,4,0
72,2,True,2.60014669992961,800.0,50.0,33.0,15,False,2,down,0.16666666666666666,12,0.2547798999585211,0.2531007999787107,0.5078806999372318,1.1018752999370918,True,near-240,11,1,1,0.625,1,down,4,0
73,3,True,1.7910580000607297,800.0,800.0,50.0,0,False,0,down,0.16666666666666666,12,0,0.242126900004223,0.242126900004223,1.9435301999328658,False,near-rndm,11,1,0,0.625,1,down,4,0
74,3,True,3.1413817000575364,800.0,50.0,33.0,5,False,2,up,0.16666666666666666,16,0.11109839996788651,0.3176017999649048,0.4287001999327913,0.9917251999722794,False,near-080,11,1,0,0.625,1,up,8,0
75,1,True,3.100652400054969,800.0,50.0,33.0,0,False,2,up,0.16666666666666666,28,0,0.4817472998984158,0.4817472998984158,4.712291999952868,False,near-000,11,2,0,1.25,1,up,8,0
76,1,True,1.9048970000585541,800.0,100.0,50.0,0,False,1,up,0.16666666666666666,16,0,0.3025258999550715,0.3025258999550715,0.830523099983111,True,near-rnd2,11,2,1,1.25,1,up,8,0
77,2,True,1.8848393000662327,800.0,50.0,33.0,10,False,2,down,0.16666666666666666,16,0.1754674999974668,0.3073758000973612,0.482843300094828,0.7770856000715867,True,near-160,11,4,3,2.5,1,down,4,0
78,2,True,1.9486853000707924,800.0,100.0,50.0,0,False,1,up,0.16666666666666666,16,0,0.3154077000217512,0.3154077000217512,0.8932426000246778,True,near-rnd2,12,3,2,1.875,1,up,8,0
79,2,True,1.7064665999496356,800.0,50.0,33.0,10,False,2,down,0.16666666666666666,16,0.1750304999295622,0.322439800016582,0.4974702999461442,1.0575415999628603,True,near-160,12,5,4,3.125,1,down,4,0
80,1,True,1.776962500065565,800.0,50.0,33.0,5,False,2,up,0.16666666666666666,16,0.0954424999654293,0.2907701999647543,0.3862126999301836,1.4883417999371886,False,near-080,12,2,0,1.25,1,up,8,0
81,1,True,1.2886281999526545,800.0,33.0,50.0,0,False,3,down,0.16666666666666666,40,0,0.6611449000192806,0.6611449000192806,3.582370699965395,False,near-rnd3,12,2,1,1.25,1,down,4,0
82,2,True,1.3292733000125736,800.0,800.0,50.0,0,False,0,down,0.16666666666666666,12,0,0.23559620010200888,0.23559620010200888,1.6141253999667242,True,near-rndm,12,2,1,1.25,1,down,4,0
83,2,True,1.6974269000347704,800.0,50.0,33.0,0,False,2,up,0.16666666666666666,36,0,0.6268011999782175,0.6268011999782175,1.367729900055565,True,near-000,12,1,1,0.625,1,up,8,0
84,2,True,2.436867199954577,800.0,50.0,33.0,15,False,2,down,0.16666666666666666,12,0.2636802000924945,0.24528699996881187,0.5089672000613064,0.837976299924776,True,near-240,12,2,2,1.25,1,down,4,0
85,2,True,2.0394307000096887,800.0,50.0,33.0,10,False,2,down,0.16666666666666666,16,0.17650029994547367,0.31841419998090714,0.4949144999263808,0.6514467000961304,True,near-160,13,6,5,3.75,1,down,4,0
86,1,True,2.29365919996053,800.0,50.0,33.0,15,False,2,down,0.16666666666666666,12,0.25060180004220456,0.2399937000591308,0.49059550010133535,1.8821835000999272,False,near-240,13,3,2,1.875,1,down,4,0
87,2,True,3.6882426000665873,800.0,50.0,33.0,5,False,2,up,0.16666666666666666,24,0.10356079996563494,0.4341626000823453,0.5377234000479802,0.5999732000054792,True,near-080,13,1,1,0.625,1,up,8,0
88,4,True,2.004811300081201,800.0,100.0,50.0,0,False,1,up,0.16666666666666666,16,0,0.3417784000048414,0.3417784000048414,0.8885608999989927,True,near-rnd2,13,4,3,2.5,1,up,8,0
89,2,True,1.9861705000512302,800.0,800.0,50.0,0,False,0,down,0.16666666666666666,12,0,0.23496110003907233,0.23496110003907233,1.4696678000036627,False,near-rndm,13,3,1,1.875,1,down,4,0
90,3,True,2.0077694000210613,800.0,33.0,50.0,0,False,3,down,0.16666666666666666,40,0,0.6903695999644697,0.6903695999644697,1.5948628999758512,False,near-rnd3,13,3,1,1.875,1,down,4,0
91,3,True,2.435848299995996,800.0,50.0,33.0,0,False,2,up,0.16666666666666666,36,0,0.6248536999337375,0.6248536999337375,0.5406253000255674,True,near-000,13,2,2,1.25,1,up,8,0
92,4,True,1.0893949000164866,800.0,100.0,50.0,0,False,1,up,0.16666666666666666,16,0,0.3204646999947727,0.3204646999947727,1.1044268999248743,False,near-rnd2,14,5,3,3.125,1,up,8,0
93,1,True,1.5276685999706388,800.0,33.0,50.0,0,False,3,down,0.16666666666666666,40,0,0.6689089999999851,0.6689089999999851,0.8235522001050413,False,near-rnd3,14,4,1,2.5,1,down,4,0
94,1,True,1.6868794000474736,800.0,50.0,33.0,0,False,2,up,0.16666666666666666,36,0,0.6105121000437066,0.6105121000437066,0.7720709000714123,True,near-000,14,3,3,1.875,1,up,8,0
95,1,True,2.7678975999588147,800.0,50.0,33.0,10,False,2,down,0.16666666666666666,12,0.17031439999118447,0.23774749995209277,0.40806189994327724,1.1001722000073642,True,near-160,14,1,1,0.625,1,down,4,0
96,2,True,4.458054199931212,800.0,800.0,50.0,0,False,0,down,0.16666666666666666,12,0,0.22749890002887696,0.22749890002887696,2.3162947999080643,False,near-rndm,14,4,1,2.5,1,down,4,0
97,3,True,1.3246695999987423,800.0,50.0,33.0,15,False,2,down,0.16666666666666666,12,0.2596084999386221,0.2623837999999523,0.5219922999385744,0.7232637000270188,True,near-240,14,4,3,2.5,1,down,4,0
98,2,True,1.6514411000534892,800.0,50.0,33.0,5,False,2,up,0.16666666666666666,24,0.10091969999484718,0.4434978000354022,0.5444175000302494,0.49366869998630136,True,near-080,14,2,2,1.25,1,up,8,0
99,1,True,2.0521443999605253,800.0,33.0,50.0,0,False,3,up,0.16666666666666666,42,0,0.7009741000365466,0.7009741000365466,1.821964000002481,True,near-rnd3,15,1,1,0.625,1,up,2,0
100,1,True,2.2762364000082016,800.0,50.0,33.0,10,False,2,down,0.16666666666666666,12,0.17472000000998378,0.24113059998489916,0.41585059999488294,0.6504759000381455,True,near-160,15,2,2,1.25,1,down,4,0
101,2,True,0.9909854000434279,800.0,800.0,50.0,0,False,0,up,0.16666666666666666,14,0,0.25757319992408156,0.25757319992408156,1.097849200014025,True,near-rndm,15,1,1,0.625,1,up,2,0
102,3,True,1.1652573000174016,800.0,50.0,33.0,5,False,2,up,0.16666666666666666,24,0.11034999997355044,0.4479190999409184,0.5582690999144688,0.7018233999842778,True,near-080,15,3,3,1.875,1,up,8,0
103,2,True,1.046151699963957,800.0,50.0,33.0,15,False,2,down,0.16666666666666666,12,0.2601631000870839,0.25859380001202226,0.5187569000991061,0.7948902000207454,True,near-240,15,5,4,3.125,1,down,4,0
104,2,True,1.1689745000330731,800.0,100.0,50.0,0,False,1,up,0.16666666666666666,16,0,0.3110325000016019,0.3110325000016019,0.8835928000044078,True,near-rnd2,15,6,4,3.75,1,up,8,0
105,1,True,2.817738400073722,800.0,50.0,33.0,0,False,2,down,0.16666666666666666,32,0,0.5537715000100434,0.5537715000100434,0.9611997000174597,False,near-000,15,1,0,0.625,1,down,4,0
106,3,True,1.2877458999864757,800.0,50.0,33.0,0,False,2,down,0.16666666666666666,32,0,0.565819300012663,0.565819300012663,0.7765884000109509,True,near-000,16,2,1,1.25,1,down,4,0
107,2,True,1.4150857999920845,800.0,100.0,50.0,0,False,1,up,0.16666666666666666,16,0,0.30694219993893057,0.30694219993893057,1.3405798999592662,False,near-rnd2,16,7,4,4.375,1,up,8,0
108,2,True,1.6096161999739707,800.0,50.0,33.0,10,False,2,down,0.16666666666666666,12,0.17103880003560334,0.24426899990066886,0.4153077999362722,1.0672007000539452,False,near-160,16,3,2,1.875,1,down,4,0
109,3,True,1.5454963999800384,800.0,50.0,33.0,15,False,2,down,0.16666666666666666,12,0.26540799997746944,0.2439106999663636,0.509318699943833,2.8850546999601647,False,near-240,16,6,4,3.75,1,down,4,0
110,3,True,1.6336536000017077,800.0,800.0,50.0,0,False,0,up,0.16666666666666666,14,0,0.2709406999638304,0.2709406999638304,2.0620821000775322,False,near-rndm,16,2,1,1.25,2,up,2,0
111,1,True,1.6640860999468714,800.0,50.0,33.0,5,False,2,down,0.16666666666666666,20,0.09053159994073212,0.36438259994611144,0.45491419988684356,0.7031147999223322,True,near-080,16,1,1,0.625,1,down,4,0
112,1,True,1.3556653999257833,800.0,33.0,50.0,0,False,3,up,0.16666666666666666,42,0,0.6948034999659285,0.6948034999659285,0.6042073999997228,True,near-rnd3,16,2,2,1.25,2,up,2,0
113,3,True,1.67247580003459,800.0,50.0,33.0,10,False,2,down,0.16666666666666666,12,0.1905272000003606,0.25215580000076443,0.44268300000112504,3.125290199997835,False,near-160,17,4,2,2.5,1,down,4,0
114,1,True,8.590237799915485,800.0,800.0,50.0,0,False,0,up,0.16666666666666666,14,0,0.252976999967359,0.252976999967359,1.7583639998920262,True,near-rndm,17,3,2,1.875,2,up,2,0
115,3,True,1.3884184999624267,800.0,50.0,33.0,0,False,2,down,0.16666666666666666,32,0,0.5723204000387341,0.5723204000387341,0.6340344999916852,True,near-000,17,3,2,1.875,1,down,4,0
116,1,True,1.9278124999254942,800.0,100.0,50.0,0,False,1,up,0.16666666666666666,16,0,0.29686290002427995,0.29686290002427995,0.9696084000170231,False,near-rnd2,17,8,4,5.0,1,up,8,0
117,2,True,4.678998800111003,800.0,50.0,33.0,15,False,2,down,0.16666666666666666,12,0.26247579988557845,0.34754320001229644,0.6100189998978749,1.1852417000336573,True,near-240,17,7,5,4.375,1,down,4,0
118,1,True,3.773202699958347,800.0,33.0,50.0,0,False,3,up,0.16666666666666666,42,0,0.6956336000002921,0.6956336000002921,0.6782443999545649,True,near-rnd3,17,3,3,1.875,2,up,2,0
119,1,True,1.8645167000358924,800.0,50.0,33.0,5,False,2,down,0.16666666666666666,20,0.08872040000278503,0.36394800001289696,0.452668400015682,0.5770773000549525,True,near-080,17,2,2,1.25,1,down,4,0
120,4,True,3.7323587000137195,800.0,50.0,33.0,10,False,2,down,0.16666666666666666,12,0.18387750000692904,0.26513559999875724,0.4490131000056863,0.7423393001081422,True,near-160,18,5,3,3.125,1,down,4,0
121,2,True,1.6072170999832451,800.0,33.0,50.0,0,False,3,up,0.16666666666666666,42,0,0.7017947999993339,0.7017947999993339,0.6664432999677956,True,near-rnd3,18,4,4,2.5,2,up,2,0
122,1,True,6.408934799954295,800.0,50.0,33.0,5,False,2,down,0.16666666666666666,20,0.08961259992793202,0.36628019995987415,0.4558927998878062,0.6309657000238076,True,near-080,18,3,3,1.875,1,down,4,0
123,4,True,2.2741759000346065,800.0,50.0,33.0,15,False,2,down,0.16666666666666666,12,0.2731236000545323,0.27511240006424487,0.5482360001187772,1.188884500064887,True,near-240,18,8,6,5.0,1,down,4,0
124,3,True,1.54702840000391,800.0,50.0,33.0,0,False,2,down,0.16666666666666666,32,0,0.5729047000641003,0.5729047000641003,0.5036697000032291,True,near-000,18,4,3,2.5,1,down,4,0
125,2,True,4.157492599915713,800.0,100.0,50.0,0,False,1,up,0.16666666666666666,16,0,0.30454819998703897,0.30454819998703897,1.7113453999627382,False,near-rnd2,18,9,4,5.625,1,up,8,1
126,1,True,2.3564855000004172,800.0,800.0,50.0,0,False,0,up,0.16666666666666666,14,0,0.2598993999417871,0.2598993999417871,2.5068625999847427,True,near-rndm,18,4,3,2.5,2,up,2,0
127,2,True,1.2143812000285834,800.0,33.0,50.0,0,False,3,up,0.16666666666666666,42,0,0.7024523000000045,0.7024523000000045,0.8537761999759823,True,near-rnd3,19,5,5,3.125,2,up,2,0
128,1,True,1.4121291999472305,800.0,50.0,33.0,5,False,2,down,0.16666666666666666,16,0.09092950006015599,0.302384200040251,0.393313700100407,4.388712799991481,False,near-080,19,1,0,0.625,1,down,4,0
129,4,True,1.0736439999891445,800.0,50.0,33.0,10,False,2,down,0.16666666666666666,12,0.18373190006241202,0.2574785000178963,0.4412104000803083,0.7162002000259236,True,near-160,19,6,4,3.75,1,down,4,0
130,1,True,2.5315043999580666,800.0,50.0,33.0,0,False,2,down,0.16666666666666666,32,0,0.5484788999892771,0.5484788999892771,0.5599102999549359,True,near-000,19,5,4,3.125,1,down,4,0
131,1,True,2.4379757000133395,800.0,50.0,33.0,15,False,2,down,0.16666666666666666,12,0.32772910001222044,0.234524599974975,0.5622536999871954,0.725535299978219,True,near-240,19,9,7,5.625,1,down,4,1
132,2,True,1.6782214000122622,800.0,100.0,50.0,0,False,1,up,0.16666666666666666,20,0,0.3796424000756815,0.3796424000756815,2.991340000065975,False,near-rnd2,19,1,0,0.625,1,up,4,0
133,2,True,1.3377002000343055,800.0,800.0,50.0,0,False,0,up,0.16666666666666666,14,0,0.26477880007587373,0.26477880007587373,0.9309125000145286,True,near-rndm,19,5,4,3.125,2,up,2,0
134,1,True,1.739829699974507,800.0,50.0,33.0,5,False,2,down,0.16666666666666666,16,0.09390089998487383,0.2951975000323728,0.3890984000172466,0.60696109989658,True,near-080,20,2,1,1.25,1,down,4,0
135,2,True,1.4987660000333562,800.0,50.0,33.0,0,False,2,down,0.16666666666666666,32,0,0.5595304000889882,0.5595304000889882,2.424878300051205,False,near-000,20,6,4,3.75,1,down,4,0
136,4,True,2.016133700031787,800.0,33.0,50.0,0,False,3,up,0.16666666666666666,42,0,0.735720600001514,0.735720600001514,0.9064723000628874,True,near-rnd3,20,6,6,3.75,2,up,2,0
137,2,True,1.2269924000138417,800.0,50.0,33.0,10,False,2,down,0.16666666666666666,12,0.18183130002580583,0.24544940004125237,0.4272807000670582,1.4045507000992075,True,near-160,20,7,5,4.375,1,down,4,0
138,1,True,4.264472399954684,800.0,50.0,33.0,15,False,2,down,0.16666666666666666,10,0.25254120002500713,0.2095273999730125,0.46206859999801964,0.6257740999571979,True,near-240,20,1,1,0.625,1,down,2,0
139,1,True,1.5986084999749437,800.0,100.0,50.0,0,False,1,up,0.16666666666666666,20,0,0.3642879999242723,0.3642879999242723,2.280975900008343,False,near-rnd2,20,2,0,1.25,1,up,4,0
140,1,True,1.3053013999015093,800.0,800.0,50.0,0,False,0,up,0.16666666666666666,14,0,0.25067290000151843,0.25067290000151843,2.8890371000161394,True,near-rndm,20,6,5,3.75,2,up,2,0
141,1,True,1.2695544000016525,800.0,50.0,33.0,10,False,2,down,0.16666666666666666,12,0.17215040000155568,0.2299502999521792,0.4021006999537349,0.6731949999229982,True,near-160,21,8,6,5.0,1,down,4,0
142,2,True,1.4165051999734715,800.0,33.0,50.0,0,False,3,down,0.16666666666666666,41,0,0.6866148000117391,0.6866148000117391,0.6922736000269651,True,near-rnd3,21,1,1,0.625,2,down,1,0
143,1,True,1.564657500013709,800.0,50.0,33.0,15,False,2,down,0.16666666666666666,10,0.2539811000460759,0.19483159994706511,0.448812699993141,2.363602999947034,True,near-240,21,2,2,1.25,2,down,2,0
144,1,True,1.2113822000101209,800.0,100.0,50.0,0,False,1,up,0.16666666666666666,28,0,0.4830330000258982,0.4830330000258982,1.5209118999773636,False,near-rnd2,21,1,0,0.625,1,up,8,0
145,1,True,1.378565700026229,800.0,50.0,33.0,5,False,2,down,0.16666666666666666,16,0.09196799993515015,0.29513990005943924,0.3871078999945894,1.073154600104317,False,near-080,21,3,1,1.875,1,down,4,0
146,2,True,1.1078316000057384,800.0,800.0,50.0,0,False,0,up,0.16666666666666666,14,0,0.2622530000517145,0.2622530000517145,1.7326630000025034,False,near-rndm,21,7,5,4.375,2,up,2,0
147,2,True,1.4533737000310794,800.0,50.0,33.0,0,False,2,down,0.16666666666666666,32,0,0.5701536999549717,0.5701536999549717,0.5913373999064788,True,near-000,21,7,5,4.375,1,down,4,0
148,2,True,1.761539899976924,800.0,50.0,33.0,15,False,2,down,0.16666666666666666,10,0.25930769997648895,0.20939540001563728,0.4687030999921262,0.7407255999278277,True,near-240,22,3,3,1.875,2,down,2,0
149,1,True,1.4870699000312015,800.0,33.0,50.0,0,False,3,down,0.16666666666666666,41,0,0.6802544000092894,0.6802544000092894,1.0352169999387115,True,near-rnd3,22,2,2,1.25,2,down,1,0
150,1,True,1.6680855000158772,800.0,100.0,50.0,0,False,1,up,0.16666666666666666,28,0,0.4876550999470055,0.4876550999470055,0.6646149000152946,True,near-rnd2,22,2,1,1.25,1,up,8,0
151,3,True,1.2451028999639675,800.0,50.0,33.0,10,False,2,down,0.16666666666666666,12,0.1795519000152126,0.2553751999512315,0.4349270999664441,0.6953386999666691,True,near-160,22,9,7,5.625,1,down,4,1
152,1,True,1.8138403000775725,800.0,50.0,33.0,5,False,2,down,0.16666666666666666,16,0.09288070001639426,0.29545099998358637,0.38833169999998063,0.8998948999214917,False,near-080,22,4,1,2.5,1,down,4,0
153,2,True,1.146458699950017,800.0,800.0,50.0,0,False,0,up,0.16666666666666666,14,0,0.2567369000753388,0.2567369000753388,0.7086708000861108,True,near-rndm,22,8,6,5.0,2,up,2,0
154,2,True,1.9574369000038132,800.0,50.0,33.0,0,False,2,down,0.16666666666666666,32,0,0.5630621000891551,0.5630621000891551,0.5750184000935405,True,near-000,22,8,6,5.0,1,down,4,0
155,1,True,2.642777799977921,800.0,50.0,33.0,10,False,2,down,0.16666666666666666,10,0.17229989997576922,0.21083920006640255,0.3831391000421718,1.2879200000315905,False,near-160,23,1,0,0.625,1,down,2,0
156,2,True,1.0927564000012353,800.0,50.0,33.0,15,False,2,down,0.16666666666666666,10,0.25709500000812113,0.2191100000636652,0.47620500007178634,0.6359043000265956,True,near-240,23,4,4,2.5,2,down,2,0
157,3,True,2.608162899967283,800.0,50.0,33.0,5,False,2,up,0.16666666666666666,18,0.10777659993618727,0.34234749991446733,0.4501240998506546,2.1368096999358386,False,near-080,23,1,0,0.625,1,up,2,0
158,2,True,1.0897101000882685,800.0,33.0,50.0,0,False,3,down,0.16666666666666666,41,0,0.6927544999634847,0.6927544999634847,0.8045966000063345,True,near-rnd3,23,3,3,1.875,2,down,1,0
159,3,True,1.469137700041756,800.0,50.0,33.0,0,False,2,down,0.16666666666666666,32,0,0.578887699986808,0.578887699986808,0.6094592000590637,True,near-000,23,9,7,5.625,1,down,4,1
160,1,True,2.0571708999341354,800.0,800.0,50.0,0,False,0,up,0.16666666666666666,14,0,0.257346999947913,0.257346999947913,2.02751529996749,False,near-rndm,23,9,6,5.625,2,up,2,1
161,1,True,1.6041949999053031,800.0,100.0,50.0,0,False,1,up,0.16666666666666666,28,0,0.4853093000128865,0.4853093000128865,0.5772820999845862,True,near-rnd2,23,3,2,1.875,1,up,8,0
162,1,True,4.32496239989996,800.0,33.0,50.0,0,False,3,down,0.16666666666666666,41,0,0.676768200006336,0.676768200006336,0.9573774000164121,False,near-rnd3,24,4,3,2.5,2,down,1,0
163,1,True,4.033344399998896,800.0,50.0,33.0,5,False,2,up,0.16666666666666666,18,0.09034080000128597,0.33238799998071045,0.4227287999819964,1.3352214000187814,False,near-080,24,2,0,1.25,2,up,2,0
164,2,True,0.9521798000205308,800.0,100.0,50.0,0,False,1,up,0.16666666666666666,28,0,0.5860672999406233,0.5860672999406233,1.305826700059697,False,near-rnd2,24,4,2,2.5,1,up,8,0
165,1,True,2.124796099960804,800.0,50.0,33.0,0,False,2,down,0.16666666666666666,30,0,0.5199315000791103,0.5199315000791103,1.037386400043033,True,near-000,24,1,1,0.625,1,down,2,0
166,2,True,1.2407988000195473,800.0,50.0,33.0,10,False,2,down,0.16666666666666666,10,0.17211909999605268,0.2810592999449,0.45317839994095266,0.6391472000395879,True,near-160,24,2,1,1.25,2,down,2,0
167,1,True,1.2383970000082627,800.0,50.0,33.0,15,False,2,down,0.16666666666666666,10,0.2533615999855101,0.212491900078021,0.4658535000635311,0.8146391999907792,False,near-240,24,5,4,3.125,2,down,2,0
168,2,True,1.3925084000220522,800.0,800.0,50.0,0,False,0,up,0.16666666666666666,14,0,0.2652074000798166,0.2652074000798166,0.9238181000109762,False,near-rndm,24,10,6,6.25,2,up,2,1
169,4,True,1.1753087999532,800.0,50.0,33.0,10,False,2,down,0.16666666666666666,10,0.1959838999900967,0.22880140005145222,0.4247853000415489,1.9899447999196127,False,near-160,25,3,1,1.875,2,down,2,0
170,2,True,2.1429303999757394,800.0,50.0,33.0,15,False,2,down,0.16666666666666666,10,0.2547293999232352,0.21000179997645319,0.46473119989968836,1.1902090000221506,False,near-240,25,6,4,3.75,2,down,2,0
171,4,True,1.3540165999438614,800.0,800.0,50.0,0,False,0,up,0.16666666666666666,14,0,0.2817776999436319,0.2817776999436319,0.7345388999674469,True,near-rndm,25,11,7,6.875,2,up,2,1
172,1,True,1.7920201000524685,800.0,50.0,33.0,5,False,2,up,0.16666666666666666,18,0.09163779998198152,0.32631430006586015,0.41795210004784167,1.8074267999036238,False,near-080,25,3,0,1.875,2,up,2,0
173,3,True,1.2524796000216156,800.0,33.0,50.0,0,False,3,down,0.16666666666666666,41,0,0.6970766000449657,0.6970766000449657,0.8546440999489278,False,near-rnd3,25,5,3,3.125,2,down,1,0
174,3,True,1.8635613999795169,800.0,50.0,33.0,0,False,2,down,0.16666666666666666,30,0,0.5443536000093445,0.5443536000093445,0.6682616999605671,True,near-000,25,2,2,1.25,2,down,2,0
175,1,True,3.461092000012286,800.0,100.0,50.0,0,False,1,up,0.16666666666666666,28,0,0.4899801999563351,0.4899801999563351,0.5661974999820814,True,near-rnd2,25,5,3,3.125,1,up,8,0
176,3,True,1.593005200033076,800.0,50.0,33.0,15,False,2,down,0.16666666666666666,10,0.267364599974826,0.22929469996597618,0.49665929994080216,0.5731055999640375,True,near-240,26,7,5,4.375,2,down,2,0
177,1,True,1.2303764000535011,800.0,33.0,50.0,0,False,3,down,0.16666666666666666,41,0,0.6763114000204951,0.6763114000204951,0.6074209999060258,True,near-rnd3,26,6,4,3.75,2,down,1,0
178,2,True,1.4701531999744475,800.0,100.0,50.0,0,False,1,up,0.16666666666666666,28,0,0.49537779996171594,0.49537779996171594,4.288825899944641,True,near-rnd2,26,6,4,3.75,1,up,8,0
179,1,True,3.142330600065179,800.0,800.0,50.0,0,False,0,up,0.16666666666666666,14,0,0.24902450002264231,0.24902450002264231,1.614420700003393,False,near-rndm,26,12,7,7.5,2,up,2,1
180,3,True,1.8650422999635339,800.0,50.0,33.0,5,False,2,up,0.16666666666666666,18,0.10463369998615235,0.3427492999471724,0.44738299993332475,0.7567485999315977,True,near-080,26,4,1,2.5,2,up,2,0
181,2,True,1.3059678999707103,800.0,50.0,33.0,0,False,2,down,0.16666666666666666,30,0,0.5222629000199959,0.5222629000199959,0.9526616999646649,True,near-000,26,3,3,1.875,2,down,2,0
182,3,True,1.2017745999619365,800.0,50.0,33.0,10,False,2,down,0.16666666666666666,10,0.17785300000105053,0.22366080002393574,0.40151380002498627,0.7489121000980958,True,near-160,26,4,2,2.5,2,down,2,0
183,2,True,1.8778860000893474,800.0,33.0,50.0,0,False,3,down,0.16666666666666666,41,0,0.6932287999661639,0.6932287999661639,0.5555803999304771,True,near-rnd3,27,7,5,4.375,2,down,1,0
184,2,True,2.2653709000442177,800.0,800.0,50.0,0,False,0,up,0.16666666666666666,14,0,0.2589925000211224,0.2589925000211224,0.6361161000095308,True,near-rndm,27,13,8,8.125,2,up,2,1
185,1,True,3.82621550001204,800.0,50.0,33.0,15,False,2,down,0.16666666666666666,10,0.24619129998609424,0.20425029995385557,0.4504415999399498,0.850743499933742,False,near-240,27,8,5,5.0,2,down,2,0
186,2,True,1.1566173000028357,800.0,50.0,33.0,0,False,2,down,0.16666666666666666,30,0,0.5350591000169516,0.5350591000169516,0.5252361999591812,True,near-000,27,4,4,2.5,2,down,2,0
187,2,True,1.1451397000346333,800.0,100.0,50.0,0,False,1,up,0.16666666666666666,28,0,0.49701990000903606,0.49701990000903606,0.5574787999503314,True,near-rnd2,27,7,5,4.375,1,up,8,0
188,1,True,4.274544699932449,800.0,50.0,33.0,5,False,2,up,0.16666666666666666,18,0.0883938999613747,0.3360691999550909,0.4244630999164656,1.2864766999846324,False,near-080,27,5,1,3.125,2,up,2,0
189,2,True,2.7079398999921978,800.0,50.0,33.0,10,False,2,down,0.16666666666666666,10,0.18031740002334118,0.21103010000661016,0.39134750002995133,0.5958850999595597,True,near-160,27,5,3,3.125,2,down,2,0
190,2,True,1.0683446999173611,800.0,50.0,33.0,15,False,2,down,0.16666666666666666,10,0.25252189999446273,0.20956550003029406,0.4620874000247568,3.1688022000016645,True,near-240,28,9,6,5.625,2,down,2,1
191,2,True,1.449815099942498,800.0,50.0,33.0,0,False,2,down,0.16666666666666666,30,0,0.5321912000654265,0.5321912000654265,0.6006132001057267,True,near-000,28,5,5,3.125,2,down,2,0
192,1,True,2.2541592000052333,800.0,100.0,50.0,0,False,1,up,0.16666666666666666,28,0,0.48484329995699227,0.48484329995699227,0.8611298999749124,True,near-rnd2,28,8,6,5.0,1,up,8,0
193,1,True,1.524626399972476,800.0,800.0,50.0,0,False,0,up,0.16666666666666666,14,0,0.25340759998653084,0.25340759998653084,0.8971337999682873,True,near-rndm,28,14,9,8.75,2,up,2,1
194,1,True,1.3559428999433294,800.0,33.0,50.0,0,False,3,down,0.16666666666666666,41,0,0.7883599000051618,0.7883599000051618,0.7140182999428362,True,near-rnd3,28,8,6,5.0,2,down,1,0
195,1,True,9.873309300048277,800.0,50.0,33.0,5,False,2,up,0.16666666666666666,20,0.08969210006762296,0.36278790002688766,0.4524800000945106,4.591459800023586,True,near-080,28,1,1,0.625,2,up,2,0
196,3,True,1.8014818000374362,800.0,50.0,33.0,10,False,2,down,0.16666666666666666,10,0.1779509000480175,0.22681300004478544,0.40476390009280294,2.5705109999980778,False,near-160,28,6,3,3.75,2,down,2,0
197,2,True,4.245618000044487,800.0,50.0,33.0,5,False,2,up,0.16666666666666666,20,0.09349520003888756,0.3653027000837028,0.45879790012259036,0.720303300069645,True,near-080,29,2,2,1.25,2,up,2,0
198,4,True,2.0207586999749765,800.0,100.0,50.0,0,False,1,up,0.16666666666666666,28,0,0.5058357999660075,0.5058357999660075,1.0369015999604017,False,near-rnd2,29,9,6,5.625,1,up,8,1
199,3,True,1.6768637999193743,800.0,50.0,33.0,10,False,2,down,0.16666666666666666,10,0.18178149999585003,0.2334460000274703,0.4152275000233203,1.6218385000247508,False,near-160,29,7,3,4.375,2,down,2,0
200,1,True,1.474051000084728,800.0,50.0,33.0,15,False,2,down,0.16666666666666666,10,0.25150310003664345,0.19935290003195405,0.4508560000685975,3.3616792000830173,False,near-240,29,10,6,6.25,2,down,2,1
201,2,True,1.6714170000050217,800.0,800.0,50.0,0,False,0,up,0.16666666666666666,14,0,0.2635054000420496,0.2635054000420496,0.822368900058791,True,near-rndm,29,15,10,9.375,2,up,2,1
202,3,True,5.587109099957161,800.0,50.0,33.0,0,False,2,down,0.16666666666666666,30,0,0.5504500000970438,0.5504500000970438,2.6702786000678316,False,near-000,29,6,5,3.75,2,down,2,0
203,2,True,1.4930057999445125,800.0,33.0,50.0,0,False,3,down,0.16666666666666666,41,0,0.6879562999820337,0.6879562999820337,0.6598784000379965,True,near-rnd3,29,9,7,5.625,2,down,1,1
204,1,True,6.11120640009176,800.0,33.0,50.0,0,False,3,down,0.16666666666666666,41,0,0.6759012999245897,0.6759012999245897,0.6130414999788627,True,near-rnd3,30,10,8,6.25,2,down,1,1
205,3,True,1.1656659999862313,800.0,50.0,33.0,15,False,2,down,0.16666666666666666,10,0.2699855000246316,0.21699500002432615,0.48698050004895777,1.0915279999608174,True,near-240,30,11,7,6.875,2,down,2,1
206,3,True,3.2354515000479296,800.0,800.0,50.0,0,False,0,up,0.16666666666666666,14,0,0.27679289993830025,0.27679289993830025,4.656747399945743,False,near-rndm,30,16,10,10.0,2,up,2,1
207,1,True,3.0355948000214994,800.0,100.0,50.0,0,False,1,up,0.16666666666666666,28,0,0.4836582000134513,0.4836582000134513,2.062334700021893,False,near-rnd2,30,10,6,6.25,1,up,8,1
208,3,True,1.0244575999677181,800.0,50.0,33.0,10,False,2,down,0.16666666666666666,10,0.18832019995898008,0.21911240008194,0.4074326000409201,0.8671768000349402,True,near-160,30,8,4,5.0,2,down,2,0
209,1,True,1.8492960999719799,800.0,50.0,33.0,5,False,2,up,0.16666666666666666,20,0.09198399994056672,0.35978229995816946,0.4517662998987362,1.9754286999814212,True,near-080,30,3,3,1.875,2,up,2,0
210,4,True,1.163615299970843,800.0,50.0,33.0,0,False,2,down,0.16666666666666666,30,0,0.5403100000694394,0.5403100000694394,0.52215850003995,True,near-000,30,7,6,4.375,2,down,2,0
211,1,True,3.8537439999636263,800.0,50.0,33.0,10,False,2,down,0.16666666666666666,10,0.16969949996564537,0.19948509999085218,0.36918459995649755,1.2801417999435216,True,near-160,31,9,5,5.625,2,down,2,1
212,1,True,1.1088626000564545,800.0,33.0,50.0,0,False,3,down,0.16666666666666666,41,0,0.7926759000401944,0.7926759000401944,0.7322849999181926,True,near-rnd3,31,11,9,6.875,2,down,1,1
213,1,True,3.1003254000097513,800.0,50.0,33.0,5,False,2,up,0.16666666666666666,20,0.08890810003504157,0.3597668999573216,0.44867499999236315,0.7428307000081986,True,near-080,31,4,4,2.5,2,up,2,0
214,3,True,1.3974542000796646,800.0,800.0,50.0,0,False,0,up,0.16666666666666666,14,0,0.27196750009898096,0.27196750009898096,2.643281999975443,True,near-rndm,31,17,11,10.625,2,up,2,2
215,5,True,1.1573471000883728,800.0,100.0,50.0,0,False,1,up,0.16666666666666666,28,0,0.5932583000976592,0.5932583000976592,0.6443399999989197,True,near-rnd2,31,11,7,6.875,1,up,8,1
216,3,True,1.2236718999920413,800.0,50.0,33.0,0,False,2,down,0.16666666666666666,30,0,0.5447629000991583,0.5447629000991583,0.5813222000142559,True,near-000,31,8,7,5.0,2,down,2,0
217,1,True,1.8177906000055373,800.0,50.0,33.0,15,False,2,down,0.16666666666666666,10,0.2511351000284776,0.20442640001419932,0.4555615000426769,0.9657448000507429,True,near-240,31,12,8,7.5,2,down,2,1
218,2,True,1.2530378999654204,800.0,50.0,33.0,10,False,2,down,0.16666666666666666,10,0.17893990001175553,0.20809480000752956,0.3870347000192851,1.283032500068657,True,near-160,32,10,6,6.25,2,down,2,1
219,1,True,4.349894699989818,800.0,800.0,50.0,0,False,0,up,0.16666666666666666,14,0,0.25113989994861186,0.25113989994861186,1.0200934000313282,False,near-rndm,32,18,11,11.25,2,up,2,2
220,1,True,1.276291099959053,800.0,33.0,50.0,0,False,3,down,0.16666666666666666,40,0,0.6630751999327913,0.6630751999327913,0.49437099997885525,True,near-rnd3,32,1,1,0.625,2,down,1,0
221,3,True,1.5427687999326736,800.0,50.0,33.0,0,False,2,down,0.16666666666666666,30,0,0.5443465999560431,0.5443465999560431,1.18650189996697,True,near-000,32,9,8,5.625,2,down,2,1
222,3,True,1.1351644000969827,800.0,100.0,50.0,0,False,1,up,0.16666666666666666,28,0,0.506736799958162,0.506736799958162,0.7340834999922663,True,near-rnd2,32,12,8,7.5,1,up,8,1
223,1,True,1.744956100010313,800.0,50.0,33.0,15,False,2,down,0.16666666666666666,10,0.25109170004725456,0.2045020000077784,0.45559370005503297,0.8681281000608578,True,near-240,32,13,9,8.125,2,down,2,1
224,2,True,1.3352005999768153,800.0,50.0,33.0,5,False,2,up,0.16666666666666666,20,0.09462250000797212,0.37007289996836334,0.46469539997633547,0.8439825000241399,True,near-080,32,5,5,3.125,2,up,2,0
225,2,True,1.587650700006634,800.0,50.0,33.0,5,False,2,up,0.16666666666666666,20,0.09282250003889203,0.36945619992911816,0.4622786999680102,0.7743780000600964,True,near-080,33,6,6,3.75,2,up,2,0
226,2,True,1.3876170000294223,800.0,100.0,50.0,0,False,1,up,0.16666666666666666,28,0,0.4929645999800414,0.4929645999800414,0.7149094000924379,True,near-rnd2,33,13,9,8.125,1,up,8,1
227,1,True,1.4837351000169292,800.0,33.0,50.0,0,False,3,down,0.16666666666666666,40,0,0.6650050000753254,0.6650050000753254,1.0806328000035137,False,near-rnd3,33,2,1,1.25,3,down,1,0
228,1,True,2.4651107999961823,800.0,50.0,33.0,10,False,2,down,0.16666666666666666,10,0.16919020004570484,0.20387600001413375,0.3730662000598386,1.207227100036107,False,near-160,33,11,6,6.875,2,down,2,1
229,1,True,9.504345300025307,800.0,50.0,33.0,15,False,2,down,0.16666666666666666,10,0.2557049999013543,0.1981423000106588,0.4538472999120131,0.9724233000306413,False,near-240,33,14,9,8.75,2,down,2,1
230,2,True,1.6860764999873936,800.0,50.0,33.0,0,False,2,down,0.16666666666666666,29,0,0.5201826000120491,0.5201826000120491,0.6358562000095844,True,near-000,33,1,1,0.625,2,down,1,0
231,2,True,19.585063499980606,800.0,800.0,50.0,0,False,0,up,0.16666666666666666,14,0,0.26144289993681014,0.26144289993681014,1.1596478000283241,False,near-rndm,33,19,11,11.875,2,up,2,2
232,3,True,2.756885999930091,800.0,100.0,50.0,0,False,1,up,0.16666666666666666,28,0,0.4968198999995366,0.4968198999995366,0.5846973999869078,True,near-rnd2,34,14,10,8.75,1,up,8,1
233,4,True,3.1396881999680772,800.0,800.0,50.0,0,False,0,up,0.16666666666666666,14,0,0.2899534000316635,0.2899534000316635,0.8830780000425875,False,near-rndm,34,20,11,12.5,2,up,2,2
234,2,True,7.594437099993229,800.0,50.0,33.0,5,False,2,down,0.16666666666666666,19,0.09523219999391586,0.35513439995702356,0.4503665999509394,0.7830685999942943,True,near-080,34,1,1,0.625,2,down,1,0
235,1,True,3.079883099999279,800.0,50.0,33.0,10,False,2,down,0.16666666666666666,10,0.1718536999542266,0.19612770003732294,0.36798139999154955,0.6893609000835568,True,near-160,34,12,7,7.5,2,down,2,1
236,2,True,2.087414300069213,800.0,50.0,33.0,15,False,2,down,0.16666666666666666,10,0.2536764000542462,0.2089443999575451,0.4626208000117913,0.7651964999968186,True,near-240,34,15,10,9.375,2,down,2,1
237,2,True,1.562509399955161,800.0,50.0,33.0,0,False,2,down,0.16666666666666666,29,0,0.5195754000451416,0.5195754000451416,0.7247429999988526,True,near-000,34,2,2,1.25,2,down,1,0
238,3,True,2.0760492000263184,800.0,33.0,50.0,0,False,3,down,0.16666666666666666,40,0,0.6747535000322387,0.6747535000322387,0.7367424999829382,True,near-rnd3,34,3,2,1.875,3,down,1,0
239,2,True,1.0398276000050828,800.0,50.0,33.0,5,False,2,down,0.16666666666666666,19,0.09877969999797642,0.35802679997868836,0.4568064999766648,0.781792200054042,False,near-080,35,2,1,1.25,2,down,1,0
240,4,True,2.7999097000574693,800.0,50.0,33.0,15,False,2,down,0.16666666666666666,10,0.26555130002088845,0.24613740004133433,0.5116887000622228,0.81084649998229,True,near-240,35,16,11,10.0,2,down,2,1
241,3,True,1.6868388999719173,800.0,50.0,33.0,10,False,2,down,0.16666666666666666,10,0.1836377999279648,0.229915100033395,0.4135528999613598,1.1362656999845058,False,near-160,35,13,7,8.125,2,down,2,1
242,3,True,0.9186965000117198,800.0,800.0,50.0,0,False,0,up,0.16666666666666666,14,0,0.2861238999757916,0.2861238999757916,0.7574751999927685,True,near-rndm,35,21,12,13.125,2,up,2,2
243,1,True,1.542542399954982,800.0,33.0,50.0,0,False,3,down,0.16666666666666666,40,0,0.667206900077872,0.667206900077872,0.6395346000790596,True,near-rnd3,35,4,3,2.5,3,down,1,0
244,2,True,1.0969425999792293,800.0,100.0,50.0,0,False,1,down,0.16666666666666666,26,0,0.4649343000492081,0.4649343000492081,0.906941800029017,True,near-rnd2,35,1,1,0.625,1,down,2,0
245,2,True,1.02188280003611,800.0,50.0,33.0,0,False,2,down,0.16666666666666666,29,0,0.5160201000981033,0.5160201000981033,0.5631080999737605,True,near-000,35,3,3,1.875,2,down,1,0
246,2,True,1.063079999992624,800.0,50.0,33.0,5,False,2,down,0.16666666666666666,19,0.09771220001857728,0.36574939999263734,0.4634616000112146,1.0500169999431819,False,near-080,36,3,1,1.875,2,down,1,0
247,1,True,3.1635241999756545,800.0,33.0,50.0,0,False,3,down,0.16666666666666666,40,0,0.6608799999812618,0.6608799999812618,0.9624947999836877,False,near-rnd3,36,5,3,3.125,3,down,1,0
248,1,True,9.018932500039227,800.0,800.0,50.0,0,False,0,up,0.16666666666666666,14,0,0.2585887999739498,0.2585887999739498,0.6883926999289542,True,near-rndm,36,22,13,13.75,2,up,2,2
249,2,True,2.9429672999540344,800.0,50.0,33.0,10,False,2,down,0.16666666666666666,10,0.17297379998490214,0.22163960000034422,0.39461339998524636,1.3265621999744326,False,near-160,36,14,7,8.75,2,down,2,1
250,2,True,2.062623200006783,800.0,100.0,50.0,0,False,1,down,0.16666666666666666,26,0,0.4737014001002535,0.4737014001002535,0.5920818999875337,False,near-rnd2,36,2,1,1.25,2,down,2,0
251,1,True,2.4456291999667883,800.0,50.0,33.0,0,False,2,down,0.16666666666666666,29,0,0.5053092000307515,0.5053092000307515,0.6414155000820756,True,near-000,36,4,4,2.5,2,down,1,0
252,2,True,1.3612109998939559,800.0,50.0,33.0,15,False,2,down,0.16666666666666666,10,0.2616692000301555,0.20439550001174212,0.4660647000418976,0.7982864999212325,True,near-240,36,17,12,10.625,2,down,2,2
253,4,True,1.1394416999537498,800.0,50.0,33.0,15,False,2,down,0.16666666666666666,10,0.2767464999342337,0.240246000001207,0.5169924999354407,0.553280399995856,True,near-240,37,18,13,11.25,2,down,2,2
254,3,True,1.2292730000335723,800.0,800.0,50.0,0,False,0,up,0.16666666666666666,14,0,0.2739325000438839,0.2739325000438839,0.7413092999486253,False,near-rndm,37,23,13,14.375,2,up,2,2
255,3,True,2.0663365999935195,800.0,50.0,33.0,5,False,2,down,0.16666666666666666,19,0.10900840000249445,0.3660505999578163,0.47505899996031076,1.1096929999766871,False,near-080,37,4,1,2.5,2,down,1,0
256,3,True,1.1749743999680504,800.0,33.0,50.0,0,False,3,down,0.16666666666666666,40,0,0.68088150001131,0.68088150001131,0.6607067999430001,True,near-rnd3,37,6,4,3.75,3,down,1,0
257,2,True,4.797202000045218,800.0,50.0,33.0,0,False,2,down,0.16666666666666666,29,0,0.5106983999721706,0.5106983999721706,0.6395164999412373,True,near-000,37,5,5,3.125,2,down,1,0
258,2,True,31.095803400035948,800.0,50.0,33.0,10,False,2,down,0.16666666666666666,10,0.17813319992274046,0.20724579994566739,0.38537899986840785,1.2113634999841452,False,near-160,37,15,7,9.375,2,down,2,1
259,1,True,5.486826699925587,800.0,100.0,50.0,0,False,1,down,0.16666666666666666,26,0,0.4580380000406876,0.4580380000406876,0.5751021000323817,True,near-rnd2,37,3,2,1.875,2,down,2,0
260,1,True,2.3216684000799432,800.0,50.0,33.0,0,False,2,down,0.16666666666666666,29,0,0.5020074000349268,0.5020074000349268,0.6973363000433892,False,near-000,38,6,5,3.75,2,down,1,0
261,1,True,2.181033600005321,800.0,50.0,33.0,15,False,2,down,0.16666666666666666,10,0.24914280010852963,0.20280690002255142,0.45194970013108104,0.7631299999775365,True,near-240,38,19,14,11.875,2,down,2,2
262,4,True,1.5875360999489203,800.0,800.0,50.0,0,False,0,up,0.16666666666666666,14,0,0.2912379999179393,0.2912379999179393,1.858570000040345,True,near-rndm,38,24,14,15.0,2,up,2,2
263,2,True,1.345103400060907,800.0,50.0,33.0,5,False,2,down,0.16666666666666666,19,0.09285519993864,0.350790899945423,0.443646099884063,1.4320724999997765,True,near-080,38,5,2,3.125,2,down,1,0
264,1,True,2.256294699967839,800.0,33.0,50.0,0,False,3,down,0.16666666666666666,40,0,0.6584420999279246,0.6584420999279246,1.8245364000322297,False,near-rnd3,38,7,4,4.375,3,down,1,0
265,2,True,1.839132699999027,800.0,100.0,50.0,0,False,1,down,0.16666666666666666,26,0,0.46783189999405295,0.46783189999405295,0.6265892999945208,False,near-rnd2,38,4,2,2.5,2,down,2,0
266,3,True,3.0538437999784946,800.0,50.0,33.0,10,False,2,up,0.16666666666666666,11,0.1903483000351116,0.2275997999822721,0.4179481000173837,0.8238856000825763,False,near-160,38,1,0,0.625,2,up,1,0
267,1,True,1.594756800099276,800.0,50.0,33.0,15,False,2,down,0.16666666666666666,9,0.25237620004918426,0.1890707000857219,0.4414469001349062,0.6635032000485808,True,near-240,39,1,1,0.625,2,down,1,0
268,1,True,1.9652228000340983,800.0,50.0,33.0,10,False,2,up,0.16666666666666666,11,0.17017940001096576,0.2153770000441,0.38555640005506575,1.0186965999891981,False,near-160,39,2,0,1.25,3,up,1,0
269,3,True,1.3514525999780744,800.0,100.0,50.0,0,False,1,down,0.16666666666666666,26,0,0.48308040003757924,0.48308040003757924,4.266708900104277,True,near-rnd2,39,5,3,3.125,2,down,2,0
270,4,True,2.1183932001003996,800.0,50.0,33.0,5,False,2,down,0.16666666666666666,19,0.10472389997448772,0.37336389999836683,0.47808779997285455,0.5697288999799639,True,near-080,39,6,3,3.75,2,down,1,0
271,1,True,1.9912284000311047,800.0,50.0,33.0,0,False,2,down,0.16666666666666666,29,0,0.5082160000456497,0.5082160000456497,0.7833689999533817,True,near-000,39,7,6,4.375,2,down,1,0
272,2,True,1.4315135999349877,800.0,33.0,50.0,0,False,3,down,0.16666666666666666,40,0,0.6776809000875801,0.6776809000875801,0.9860440000193194,False,near-rnd3,39,8,4,5.0,3,down,1,0
273,2,True,1.5595328999916092,800.0,50.0,33.0,15,False,2,down,0.16666666666666666,9,0.25579890003427863,0.19695909996517003,0.45275799999944866,0.6083005999680609,True,near-240,40,2,2,1.25,2,down,1,0
274,1,True,2.8445933999028057,800.0,50.0,33.0,0,False,2,down,0.16666666666666666,29,0,0.49922340002376586,0.49922340002376586,0.6924734000349417,True,near-000,40,8,7,5.0,2,down,1,0
275,1,True,2.0347605999559164,800.0,50.0,33.0,5,False,2,down,0.16666666666666666,19,0.09181080001872033,0.35248180001508445,0.4442926000338048,0.7224939999869093,False,near-080,40,7,3,4.375,2,down,1,0
276,2,True,1.832883600029163,800.0,100.0,50.0,0,False,1,down,0.16666666666666666,26,0,0.4602421000599861,0.4602421000599861,0.5759078999981284,False,near-rnd2,40,6,3,3.75,2,down,2,0
277,4,True,1.1015046999091282,800.0,50.0,33.0,10,False,2,up,0.16666666666666666,11,0.19633840001188219,0.24214510002639145,0.43848350003827363,1.1564372999127954,False,near-160,40,3,0,1.875,3,up,1,0
278,1,True,6.83313939999789,800.0,50.0,33.0,5,False,2,down,0.16666666666666666,19,0.095470100059174,0.33923470007721335,0.43470480013638735,1.0443817999912426,False,near-080,41,8,3,5.0,2,down,1,0
279,2,True,1.7845427999272943,800.0,100.0,50.0,0,False,1,down,0.16666666666666666,26,0,0.47304200008511543,0.47304200008511543,1.0448012000415474,False,near-rnd2,41,7,3,4.375,2,down,2,0
280,1,True,10.25704209995456,800.0,50.0,33.0,0,False,2,down,0.16666666666666666,29,0,0.4988716000225395,0.4988716000225395,0.6842642000410706,True,near-000,41,9,8,5.625,2,down,1,1
281,2,True,1.687213599914685,800.0,50.0,33.0,15,False,2,down,0.16666666666666666,9,0.2577624999685213,0.20922159997280687,0.46698409994132817,0.737713799928315,True,near-240,41,3,3,1.875,2,down,1,0
282,1,True,4.915220499970019,800.0,50.0,33.0,10,False,2,up,0.16666666666666666,11,0.17374850006308407,0.21946060005575418,0.39320910011883825,0.8204667000100017,True,near-160,41,4,1,2.5,3,up,1,0
283,2,True,3.6292497999966145,800.0,50.0,33.0,15,False,2,down,0.16666666666666666,9,0.2633233000524342,0.2219760000007227,0.4852993000531569,1.0628715999191627,True,near-240,42,4,4,2.5,2,down,1,0
284,2,True,1.4540570999961346,800.0,50.0,33.0,10,False,2,up,0.16666666666666666,11,0.17992729996331036,0.23119170009158552,0.4111190000548959,0.8833496000152081,True,near-160,42,5,2,3.125,3,up,1,0
285,2,True,1.1604049999732524,800.0,100.0,50.0,0,False,1,down,0.16666666666666666,26,0,0.4641663000220433,0.4641663000220433,1.3488877000054345,True,near-rnd2,42,8,4,5.0,2,down,2,0
286,1,True,1.5007548000430688,800.0,50.0,33.0,0,False,2,down,0.16666666666666666,28,0,0.49318690004292876,0.49318690004292876,0.9095527000026777,True,near-000,42,1,1,0.625,2,down,1,0
287,1,True,4.044647999922745,800.0,50.0,33.0,5,False,2,down,0.16666666666666666,19,0.0912657999433577,0.3531295000575483,0.444395300000906,0.6123163999291137,True,near-080,42,9,4,5.625,2,down,1,1
288,3,True,1.7118764999322593,800.0,50.0,33.0,10,False,2,up,0.16666666666666666,11,0.17802579991985112,0.23062950000166893,0.40865529992152005,0.861774199991487,True,near-160,43,6,3,3.75,3,up,1,0
289,1,True,1.2632577000185847,800.0,50.0,33.0,5,False,2,down,0.16666666666666666,19,0.08729420008603483,0.35076409997418523,0.43805830006022006,0.7087183999828994,True,near-080,43,10,5,6.25,2,down,1,1
290,4,True,2.049162399955094,800.0,50.0,33.0,0,False,2,down,0.16666666666666666,28,0,0.5209647000301629,0.5209647000301629,0.5940522999735549,True,near-000,43,2,2,1.25,2,down,1,0
291,3,True,1.3722420000704005,800.0,50.0,33.0,15,False,2,down,0.16666666666666666,9,0.2560889000305906,0.20796480006538332,0.4640537000959739,1.1735880998894572,False,near-240,43,5,4,3.125,2,down,1,0
292,2,True,1.7721358999842778,800.0,100.0,50.0,0,False,1,down,0.16666666666666666,26,0,0.46096010005567223,0.46096010005567223,0.6217459000181407,True,near-rnd2,43,9,5,5.625,2,down,2,1
293,2,True,2.101042399997823,800.0,50.0,33.0,0,False,2,down,0.16666666666666666,28,0,0.49688999995123595,0.49688999995123595,0.9858248999807984,False,near-000,44,3,2,1.875,2,down,1,0
294,3,True,1.1757138000102714,800.0,50.0,33.0,5,False,2,down,0.16666666666666666,19,0.09549050009809434,0.3616080000065267,0.45709850010462105,0.5673230999382213,True,near-080,44,11,6,6.875,2,down,1,1
295,1,True,2.951352800009772,800.0,50.0,33.0,10,False,2,up,0.16666666666666666,11,0.17185939999762923,0.22143339994363487,0.3932927999412641,0.9241056999890134,False,near-160,44,7,3,4.375,3,up,1,0
296,3,True,1.4631756000453606,800.0,50.0,33.0,15,False,2,down,0.16666666666666666,9,0.2669054000871256,0.2119986000470817,0.4789040001342073,0.7077013000380248,True,near-240,44,6,5,3.75,2,down,1,0
297,3,True,1.3489032000070438,800.0,100.0,50.0,0,False,1,down,0.16666666666666666,26,0,0.4871615000301972,0.4871615000301972,0.9229915000032634,True,near-rnd2,44,10,6,6.25,2,down,2,1
298,1,True,17.863233199925162,800.0,100.0,50.0,0,False,1,down,0.16666666666666666,26,0,0.4681181999621913,0.4681181999621913,0.6442697000456974,True,near-rnd2,45,11,7,6.875,2,down,2,1
299,1,True,28.012750699999742,800.0,50.0,33.0,5,False,2,down,0.16666666666666666,19,0.08895619993563741,0.3480014998931438,0.4369576998287812,1.6334718000143766,False,near-080,45,12,6,7.5,2,down,1,1
300,1,True,2.4646475999616086,800.0,50.0,33.0,10,False,2,up,0.16666666666666666,11,0.16794539999682456,0.21919329999946058,0.38713869999628514,1.9247864000499249,False,near-160,45,8,3,5.0,3,up,1,0
301,3,True,3.754146400024183,800.0,50.0,33.0,0,False,2,down,0.16666666666666666,28,0,0.5102001000195742,0.5102001000195742,1.1025389999849722,True,near-000,45,4,3,2.5,2,down,1,0
302,4,True,1.489488400053233,800.0,50.0,33.0,15,False,2,down,0.16666666666666666,9,0.2693740999093279,0.22938079992309213,0.49875489983242005,0.6945605999790132,True,near-240,45,7,6,4.375,2,down,1,0
303,1,True,4.640511799952947,800.0,50.0,33.0,15,False,2,down,0.16666666666666666,9,0.25279119994957,0.18121640000026673,0.43400759994983673,0.8898209999315441,False,near-240,46,8,6,5.0,2,down,1,0
304,1,True,27.752237599925138,800.0,50.0,33.0,0,False,2,down,0.16666666666666666,28,0,0.49357190006412566,0.49357190006412566,0.58199480001349,True,near-000,46,5,4,3.125,2,down,1,0
305,2,True,1.3929737999569625,800.0,50.0,33.0,5,False,2,down,0.16666666666666666,19,0.09611059993039817,0.36202110000886023,0.4581316999392584,0.7060307000065222,True,near-080,46,13,7,8.125,2,down,1,1
306,2,True,4.463012200081721,800.0,100.0,50.0,0,False,1,down,0.16666666666666666,26,0,0.464643600047566,0.464643600047566,0.5591696000192314,False,near-rnd2,46,12,7,7.5,2,down,2,1
307,1,True,1.4932738000061363,800.0,50.0,33.0,5,False,2,down,0.16666666666666666,19,0.09101800003554672,0.34577550005633384,0.43679350009188056,1.8838312000734732,False,near-080,47,14,7,8.75,2,down,1,1
308,2,True,2.9441004000836983,800.0,50.0,33.0,0,False,2,down,0.16666666666666666,28,0,0.5049455999396741,0.5049455999396741,1.5139235999668017,True,near-000,47,6,5,3.75,2,down,1,0
309,1,True,10.915954899974167,800.0,50.0,33.0,15,False,2,down,0.16666666666666666,9,0.25275939994025975,0.18108810007106513,0.4338475000113249,0.6482038999674842,True,near-240,47,9,7,5.625,2,down,1,1
310,3,True,2.4127530000405386,800.0,100.0,50.0,0,False,1,down,0.16666666666666666,26,0,0.47405299998354167,0.47405299998354167,0.48181039991322905,True,near-rnd2,47,13,8,8.125,2,down,2,1
311,2,True,2.8823461000574753,800.0,50.0,33.0,0,False,2,down,0.16666666666666666,28,0,0.5026511999312788,0.5026511999312788,0.6631318000145257,True,near-000,48,7,6,4.375,2,down,1,0
312,1,True,11.299823999986984,800.0,100.0,50.0,0,False,1,down,0.16666666666666666,26,0,0.4524740999331698,0.4524740999331698,0.6010531999636441,True,near-rnd2,48,14,9,8.75,2,down,2,1
313,3,True,9.92977669998072,800.0,50.0,33.0,5,False,2,down,0.16666666666666666,19,0.10932020004838705,0.38173829996958375,0.4910585000179708,0.633807500009425,True,near-080,48,15,8,9.375,2,down,1,1
314,2,True,4.294012699974701,800.0,50.0,33.0,15,False,2,down,0.16666666666666666,9,0.25138280005194247,0.20486610010266304,0.4562489001546055,2.139383599977009,False,near-240,48,10,7,6.25,2,down,1,1
315,2,True,2.343982300022617,800.0,50.0,33.0,15,False,2,down,0.16666666666666666,9,0.25902090000454336,0.20269290008582175,0.4617138000903651,0.9381643000524491,True,near-240,49,11,8,6.875,2,down,1,1
316,2,True,2.0719831000315025,800.0,50.0,33.0,0,False,2,down,0.16666666666666666,28,0,0.49620839999988675,0.49620839999988675,0.9169017999665812,False,near-000,49,8,6,5.0,2,down,1,0
317,2,True,1.8825626000761986,800.0,50.0,33.0,5,False,2,down,0.16666666666666666,19,0.10048969998024404,0.3552682000445202,0.45575790002476424,0.7593285000184551,True,near-080,49,16,9,10.0,2,down,1,1
318,2,True,1.305233999970369,800.0,100.0,50.0,0,False,1,down,0.16666666666666666,26,0,0.477757400018163,0.477757400018163,0.43053730006795377,True,near-rnd2,49,15,10,9.375,2,down,2,1
319,1,True,1.9220804999349639,800.0,50.0,33.0,15,False,2,down,0.16666666666666666,9,0.253706399933435,0.18902789999265224,0.44273429992608726,0.7806595000438392,True,near-240,50,12,9,7.5,2,down,1,1
320,1,True,5.706213400000706,800.0,50.0,33.0,0,False,2,down,0.16666666666666666,28,0,0.49094759998843074,0.49094759998843074,1.5386400000425056,False,near-000,50,9,6,5.625,2,down,1,1
321,4,True,1.3128204999957234,800.0,100.0,50.0,0,False,1,down,0.16666666666666666,26,0,0.4828535000560805,0.4828535000560805,0.9536268999800086,True,near-rnd2,50,16,11,10.0,2,down,2,1
322,3,True,1.3693482999224216,800.0,100.0,50.0,0,False,1,down,0.16666666666666666,26,0,0.4713460999773815,0.4713460999773815,0.5217864000005648,True,near-rnd2,51,17,12,10.625,2,down,2,2
323,2,True,1.4025878999382257,800.0,50.0,33.0,15,False,2,down,0.16666666666666666,9,0.2576949999202043,0.20658670004922897,0.46428169996943325,0.897577700088732,False,near-240,51,13,9,8.125,2,down,1,1
324,1,True,1.6032780000241473,800.0,50.0,33.0,0,False,2,down,0.16666666666666666,28,0,0.48324810003396124,0.48324810003396124,0.8288080999627709,True,near-000,51,10,7,6.25,2,down,1,1
325,3,True,1.0484258000506088,800.0,100.0,50.0,0,False,1,down,0.16666666666666666,26,0,0.4873489999445155,0.4873489999445155,0.5875292000127956,True,near-rnd2,52,18,13,11.25,2,down,2,2
326,1,True,1.2359965000068769,800.0,50.0,33.0,15,False,2,down,0.16666666666666666,9,0.2523314000573009,0.18076819996349514,0.43309960002079606,1.3940179999917746,False,near-240,52,14,9,8.75,2,down,1,1
327,1,True,4.224600599962287,800.0,50.0,33.0,0,False,2,down,0.16666666666666666,28,0,0.4813641000073403,0.4813641000073403,0.7056873999536037,True,near-000,52,11,8,6.875,2,down,1,1
328,4,True,1.5484742999542505,800.0,100.0,50.0,0,False,1,down,0.16666666666666666,26,0,0.4927822999889031,0.4927822999889031,0.866460399935022,True,near-rnd2,53,19,14,11.875,2,down,2,2
329,4,True,1.1899726999690756,800.0,50.0,33.0,0,False,2,down,0.16666666666666666,28,0,0.5222167000174522,0.5222167000174522,0.5436133000766858,True,near-000,53,12,9,7.5,2,down,1,1
330,1,True,2.2334404999855906,800.0,50.0,33.0,15,False,2,down,0.16666666666666666,9,0.24829120002686977,0.18604200007393956,0.43433320010080934,0.9972406000597402,True,near-240,53,15,10,9.375,2,down,1,1
331,3,True,1.4259917999152094,800.0,50.0,33.0,0,False,2,down,0.16666666666666666,28,0,0.5110143999336287,0.5110143999336287,0.6948272000299767,True,near-000,54,13,10,8.125,2,down,1,1
332,2,True,5.157385000027716,800.0,50.0,33.0,15,False,2,down,0.16666666666666666,9,0.25257800007238984,0.20778699999209493,0.4603650000644848,0.645369799924083,True,near-240,54,16,11,10.0,2,down,1,1
333,1,True,4.785969700082205,800.0,100.0,50.0,0,False,1,down,0.16666666666666666,25,0,0.44737730000633746,0.44737730000633746,0.5128836000803858,True,near-rnd2,54,1,1,0.625,2,down,1,0
334,1,True,2.363770900061354,800.0,100.0,50.0,0,False,1,down,0.16666666666666666,25,0,0.4456538000376895,0.4456538000376895,0.5950048000086099,False,near-rnd2,55,2,1,1.25,3,down,1,0
335,1,True,1.6041781000094488,800.0,50.0,33.0,0,False,2,down,0.16666666666666666,28,0,0.491301600006409,0.491301600006409,0.8974611000157893,False,near-000,55,14,10,8.75,2,down,1,1
336,1,True,1.906485699932091,800.0,50.0,33.0,0,False,2,down,0.16666666666666666,28,0,0.48644400003831834,0.48644400003831834,0.5199139000615105,True,near-000,56,15,11,9.375,2,down,1,1
337,3,True,1.4479232999728993,800.0,100.0,50.0,0,False,1,down,0.16666666666666666,25,0,0.466772299958393,0.466772299958393,0.5234131999313831,False,near-rnd2,56,3,1,1.875,3,down,1,0
338,1,True,7.4522884000325575,800.0,50.0,33.0,0,False,2,down,0.16666666666666666,28,0,0.4869805999333039,0.4869805999333039,0.44237710000015795,True,near-000,57,16,12,10.0,2,down,1,1
