trial,primeIter,primeCorrect,primeTime,primeDepth,stimDepth,extraDepth,driveFrames,nearToFar,diopters,direction,size,intensity,extraLatency,mainLatency,totalLatency,responseTime,correct,caseLabel,caseTrial,trialsAtStep,stepCorrect,expected,w,direction,stepsize,stepChange
1,2,True,1.6993846000405028,800.0,800.0,50.0,0,False,0,start,0.16666666666666666,60,0,1.0026705999625847,1.0026705999625847,3.05804219993297,True,near-rndm,1,1,1,0.625,0.5,start,16,0
2,1,True,1.6545767999486998,800.0,33.0,50.0,0,False,3,start,0.16666666666666666,60,0,0.983178700087592,0.983178700087592,0.794213299988769,True,near-rnd3,1,1,1,0.625,0.5,start,16,0
3,1,True,1.974981699953787,800.0,100.0,50.0,0,False,1,start,0.16666666666666666,60,0,1.003402200061828,1.003402200061828,0.1643720999127254,True,near-rnd2,1,1,1,0.625,0.5,start,16,0
4,3,True,1.4275806000223383,800.0,50.0,33.0,0,False,2,start,0.16666666666666666,60,0,1.0190305000869557,1.0190305000869557,0.6194477000972256,True,near-000,1,1,1,0.625,0.5,start,16,0
5,2,True,1.607242300058715,800.0,50.0,33.0,5,False,2,start,0.16666666666666666,60,0.09143300005234778,1.0129935999866575,1.1044266000390053,0.5258184000849724,True,near-080,1,1,1,0.625,0.5,start,16,0
6,3,True,1.8568045001011342,800.0,50.0,33.0,10,False,2,start,0.16666666666666666,60,0.1871157999848947,1.0233387000625953,1.21045450004749,0.16935119999106973,True,near-160,1,1,1,0.625,0.5,start,16,0
7,4,True,0.9519938000012189,800.0,50.0,33.0,15,False,2,start,0.16666666666666666,60,0.28055389993824065,1.047285999986343,1.3278398999245837,0.22168519999831915,True,near-240,1,1,1,0.625,0.5,start,16,0
8,1,True,2.7647525999927893,800.0,50.0,33.0,0,False,2,start,0.16666666666666666,44,0,0.7392797999782488,0.7392797999782488,0.8082290999591351,True,near-000,2,1,1,0.625,1.0,start,16,0
9,2,True,0.8487577999476343,800.0,100.0,50.0,0,False,1,start,0.16666666666666666,44,0,0.7462225999915972,0.7462225999915972,0.5955259000184014,True,near-rnd2,2,1,1,0.625,1.0,start,16,0
10,2,True,1.180109899956733,800.0,800.0,50.0,0,False,0,start,0.16666666666666666,44,0,0.7433545999228954,0.7433545999228954,0.2682592000346631,True,near-rndm,2,1,1,0.625,1.0,start,16,0
11,1,True,2.7385555000510067,800.0,50.0,33.0,15,False,2,start,0.16666666666666666,44,0.2491992999566719,0.7413410000735894,0.9905403000302613,0.4200927000492811,True,near-240,2,1,1,0.625,1.0,start,16,0
12,1,True,7.273834399995394,800.0,33.0,50.0,0,False,3,start,0.16666666666666666,44,0,0.7233464000746608,0.7233464000746608,0.9545066000428051,False,near-rnd3,2,1,0,0.625,1.0,start,16,0
13,1,True,2.1420783000066876,800.0,50.0,33.0,10,False,2,start,0.16666666666666666,44,0.17356329993344843,0.7462074999930337,0.9197707999264821,0.422952999942936,True,near-160,2,1,1,0.625,1.0,start,16,0
14,3,True,0.8293866000603884,800.0,50.0,33.0,5,False,2,start,0.16666666666666666,44,0.10958709998521954,0.7667434000177309,0.8763305000029504,0.19068539992440492,True,near-080,2,1,1,0.625,1.0,start,16,0
15,1,True,1.3432858999585733,800.0,50.0,33.0,10,False,2,start,0.16666666666666666,28,0.169448500033468,0.4908692000899464,0.6603177001234144,0.5584680000320077,True,near-160,3,1,1,0.625,1.0,start,16,0
16,2,True,1.1408497999655083,800.0,50.0,33.0,5,False,2,start,0.16666666666666666,28,0.09611729998141527,0.5021779000526294,0.5982952000340447,0.44419199996627867,True,near-080,3,1,1,0.625,1.0,start,16,0
17,4,True,1.3595718999858946,800.0,100.0,50.0,0,False,1,start,0.16666666666666666,28,0,0.5082589000230655,0.5082589000230655,1.0619034999981523,True,near-rnd2,3,1,1,0.625,1.0,start,16,0
18,1,True,2.012328000040725,800.0,800.0,50.0,0,False,0,start,0.16666666666666666,28,0,0.4781882999232039,0.4781882999232039,0.5704237000318244,True,near-rndm,3,1,1,0.625,1.0,start,16,0
19,2,True,2.66046909999568,800.0,33.0,50.0,0,False,3,start,0.16666666666666666,44,0,0.7407451000763103,0.7407451000763103,0.9792114000301808,True,near-rnd3,3,2,1,1.25,1.0,start,16,0
20,2,True,1.3518732000375167,800.0,50.0,33.0,0,False,2,start,0.16666666666666666,28,0,0.49170380004215986,0.49170380004215986,0.6970624000532553,True,near-000,3,1,1,0.625,1.0,start,16,0
21,1,True,2.418082999996841,800.0,50.0,33.0,15,False,2,start,0.16666666666666666,28,0.24917019996792078,0.49278460000641644,0.7419547999743372,0.5412309999810532,True,near-240,3,1,1,0.625,1.0,start,16,0
22,4,True,1.3861827999353409,800.0,800.0,50.0,0,False,0,start,0.16666666666666666,12,0,0.24459370004478842,0.24459370004478842,0.6101122999098152,True,near-rndm,4,1,1,0.625,0.5,start,16,0
23,2,True,0.9469884999562055,800.0,50.0,33.0,0,False,2,start,0.16666666666666666,12,0,0.23775390000082552,0.23775390000082552,1.529968100017868,False,near-000,4,1,0,0.625,0.5,start,16,0
24,1,True,2.067604699986987,800.0,50.0,33.0,10,False,2,start,0.16666666666666666,12,0.17521859996486455,0.2375029999529943,0.41272159991785884,0.9695724999764934,False,near-160,4,1,0,0.625,0.5,start,16,0
25,1,True,1.9156765000661835,800.0,50.0,33.0,15,False,2,start,0.16666666666666666,12,0.24920000007841736,0.2333006999688223,0.48250070004723966,0.9024835999589413,True,near-240,4,1,1,0.625,0.5,start,16,0
26,1,True,2.126094900071621,800.0,100.0,50.0,0,False,1,start,0.16666666666666666,12,0,0.24079189996700734,0.24079189996700734,0.9108895999379456,False,near-rnd2,4,1,0,0.625,0.5,start,16,0
27,1,True,1.3180381000274792,800.0,50.0,33.0,5,False,2,start,0.16666666666666666,12,0.08977869991213083,0.23524329997599125,0.3250219998881221,0.7922367999562994,False,near-080,4,1,0,0.625,0.5,start,16,0
28,1,True,2.2424367000348866,800.0,33.0,50.0,0,False,3,start,0.16666666666666666,28,0,0.4712671000743285,0.4712671000743285,0.9051875000586733,True,near-rnd3,4,1,1,0.625,0.5,start,16,0
29,3,True,1.8230563999386504,800.0,50.0,33.0,10,False,2,up,0.16666666666666666,20,0.24614679999649525,0.38005639996845275,0.626203199964948,0.708206299925223,True,near-160,5,1,1,0.625,0.5,up,8,0
30,2,True,0.8663566999603063,800.0,100.0,50.0,0,False,1,up,0.16666666666666666,20,0,0.3720255000516772,0.3720255000516772,0.6863769000628963,True,near-rnd2,5,1,1,0.625,0.5,up,8,0
31,2,True,1.9958479000488296,800.0,50.0,33.0,0,False,2,up,0.16666666666666666,20,0,0.37248210003599524,0.37248210003599524,0.9804888999788091,False,near-000,5,1,0,0.625,0.5,up,8,0
32,1,True,1.0314877000637352,800.0,800.0,50.0,0,False,0,start,0.16666666666666666,0,0,0.1426115999929607,0.1426115999929607,1.3528607999905944,False,near-rndm,5,1,0,0.625,0.5,start,16,0
33,2,True,1.3980972999706864,800.0,50.0,33.0,5,False,2,up,0.16666666666666666,20,0.09922610002104193,0.37988260004203767,0.4791087000630796,1.3981976999202743,False,near-080,5,1,0,0.625,0.5,up,8,0
34,1,True,1.2103561999974772,800.0,33.0,50.0,0,False,3,start,0.16666666666666666,12,0,0.21351680008228868,0.21351680008228868,1.2247495000483468,False,near-rnd3,5,1,0,0.625,0.5,start,16,0
35,3,True,1.351408899994567,800.0,50.0,33.0,15,False,2,start,0.16666666666666666,0,0.26991279993671924,0.055189100094139576,0.3251019000308588,0.8723489999538288,False,near-240,5,1,0,0.625,0.5,start,16,0
36,4,True,1.247084500035271,800.0,50.0,33.0,0,False,2,up,0.16666666666666666,20,0,0.4365931000793353,0.4365931000793353,0.8050368999829516,False,near-000,6,2,0,1.25,1,up,8,0
37,2,True,4.21611770009622,800.0,50.0,33.0,10,False,2,up,0.16666666666666666,20,0.17995879997033626,0.37225829996168613,0.5522170999320224,0.5661238000029698,True,near-160,6,2,2,1.25,1,up,8,0
38,1,True,1.4712707999860868,800.0,33.0,50.0,0,False,3,up,0.16666666666666666,20,0,0.34219809994101524,0.34219809994101524,1.674765200004913,False,near-rnd3,6,1,0,0.625,0.5,up,8,0
39,2,True,1.286379300057888,800.0,100.0,50.0,0,False,1,up,0.16666666666666666,20,0,0.3685473999939859,0.3685473999939859,0.8505865000188351,True,near-rnd2,6,2,2,1.25,1,up,8,0
40,1,True,1.0334438000572845,800.0,50.0,33.0,15,False,2,up,0.16666666666666666,8,0.24838320002891123,0.17629269999451935,0.4246759000234306,0.9657489000819623,False,near-240,6,1,0,0.625,0.5,up,8,0
41,2,True,0.8631798999849707,800.0,50.0,33.0,5,False,2,up,0.16666666666666666,20,0.09927200002130121,0.3764966999879107,0.4757687000092119,0.583232200006023,False,near-080,6,2,0,1.25,1,up,8,0
42,1,True,0.9988096999004483,800.0,800.0,50.0,0,False,0,up,0.16666666666666666,8,0,0.1523473000852391,0.1523473000852391,1.0781474000541493,False,near-rndm,6,1,0,0.625,0.5,up,8,0
43,4,True,1.0818133000284433,800.0,33.0,50.0,0,False,3,up,0.16666666666666666,20,0,0.3654240999603644,0.3654240999603644,0.9929572999244556,True,near-rnd3,7,2,1,1.25,1,up,8,0
44,2,True,1.087072299909778,800.0,50.0,33.0,15,False,2,up,0.16666666666666666,8,0.2582702999934554,0.17803900002036244,0.43630930001381785,0.7526594999944791,False,near-240,7,2,0,1.25,1,up,8,0
45,2,True,0.7515710999723524,800.0,100.0,50.0,0,False,1,up,0.16666666666666666,20,0,0.372613999992609,0.372613999992609,0.6357850999338552,True,near-rnd2,7,3,3,1.875,1,up,8,0
46,1,True,1.0691697000293061,800.0,800.0,50.0,0,False,0,up,0.16666666666666666,8,0,0.1536502999952063,0.1536502999952063,1.1051226001000032,False,near-rndm,7,2,0,1.25,1,up,8,0
47,1,True,1.6843712000409141,800.0,50.0,33.0,0,False,2,up,0.16666666666666666,28,0,0.4880369999445975,0.4880369999445975,1.120011999970302,False,near-000,7,1,0,0.625,1,up,8,0
48,2,True,3.783739999984391,800.0,50.0,33.0,10,False,2,up,0.16666666666666666,20,0.17525269999168813,0.374764799955301,0.5500174999469891,0.46403289993759245,True,near-160,7,3,3,1.875,1,up,8,0
49,2,True,3.4990585999330506,800.0,50.0,33.0,5,False,2,up,0.16666666666666666,28,0.0972536999033764,0.4917983999475837,0.5890520998509601,1.579714099992998,False,near-080,7,1,0,0.625,1,up,8,0
50,2,True,1.141266299993731,800.0,50.0,33.0,5,False,2,up,0.16666666666666666,28,0.0941463999915868,0.5012821999844164,0.5954285999760032,0.6774125999072567,True,near-080,8,2,1,1.25,1,up,8,0
51,1,True,75.840263399994,800.0,800.0,50.0,0,False,0,up,0.16666666666666666,16,0,0.3796192998997867,0.3796192998997867,0.9712983999634162,True,near-rndm,8,1,1,0.625,1,up,8,0
52,3,True,0.8221881999634206,800.0,50.0,33.0,15,False,2,up,0.16666666666666666,16,0.26504230010323226,0.31082979997154325,0.5758721000747755,0.54623689991422,True,near-240,8,1,1,0.625,1,up,8,0
53,2,True,0.8102832000004128,800.0,100.0,50.0,0,False,1,down,0.16666666666666666,16,0,0.3136928000021726,0.3136928000021726,0.6609434999991208,True,near-rnd2,8,1,1,0.625,1,down,4,0
54,3,True,1.3223340000258759,800.0,50.0,33.0,0,False,2,up,0.16666666666666666,28,0,0.5069136000238359,0.5069136000238359,0.5921259999740869,True,near-000,8,2,1,1.25,1,up,8,0
55,1,True,2.3382927000056952,800.0,50.0,33.0,10,False,2,down,0.16666666666666666,16,0.16915500001050532,0.30320630001369864,0.47236130002420396,0.6257714999374002,True,near-160,8,1,1,0.625,1,down,4,0
56,4,True,1.168487700051628,800.0,33.0,50.0,0,False,3,up,0.16666666666666666,20,0,0.365044700098224,0.365044700098224,0.8775530999992043,False,near-rnd3,8,3,1,1.875,1,up,8,0
57,1,True,1.8081912000197917,800.0,50.0,33.0,5,False,2,up,0.16666666666666666,28,0.09444690006785095,0.6158636000473052,0.7103105001151562,0.46512710000388324,True,near-080,9,3,2,1.875,1,up,8,0
58,2,True,0.9247005000943318,800.0,50.0,33.0,10,False,2,down,0.16666666666666666,16,0.18277189997024834,0.30852750001940876,0.4912993999896571,0.7674265999812633,True,near-160,9,2,2,1.25,1,down,4,0
59,1,True,0.9140758999856189,800.0,50.0,33.0,15,False,2,up,0.16666666666666666,16,0.25123420008458197,0.3027455999981612,0.5539798000827432,0.5254521999740973,True,near-240,9,2,2,1.25,1,up,8,0
60,3,True,1.8000249000033364,800.0,50.0,33.0,0,False,2,up,0.16666666666666666,28,0,0.5199707000283524,0.5199707000283524,0.5103194999974221,True,near-000,9,3,2,1.875,1,up,8,0
61,2,True,1.0591765000717714,800.0,33.0,50.0,0,False,3,up,0.16666666666666666,20,0,0.34955789998639375,0.34955789998639375,0.8752327999100089,True,near-rnd3,9,4,2,2.5,1,up,8,0
62,2,True,0.9094104999676347,800.0,100.0,50.0,0,False,1,down,0.16666666666666666,16,0,0.29548570001497865,0.29548570001497865,0.7789919000351802,True,near-rnd2,9,2,2,1.25,1,down,4,0
63,2,True,1.4133079999592155,800.0,800.0,50.0,0,False,0,up,0.16666666666666666,16,0,0.2980273999273777,0.2980273999273777,0.7264283000258729,False,near-rndm,9,2,1,1.25,1,up,8,0
64,2,True,0.9340020000236109,800.0,800.0,50.0,0,False,0,up,0.16666666666666666,16,0,0.2960275000659749,0.2960275000659749,0.448325700010173,True,near-rndm,10,3,2,1.875,1,up,8,0
65,2,True,2.8685824999120086,800.0,100.0,50.0,0,False,1,down,0.16666666666666666,16,0,0.3141013999702409,0.3141013999702409,1.034433399909176,False,near-rnd2,10,3,2,1.875,1,down,4,0
66,3,True,1.049210499972105,800.0,50.0,33.0,15,False,2,up,0.16666666666666666,16,0.26178930001333356,0.3229173000436276,0.5847066000569612,0.7281688000075519,False,near-240,10,3,2,1.875,1,up,8,0
67,3,True,0.737609300063923,800.0,33.0,50.0,0,False,3,up,0.16666666666666666,20,0,0.361446600058116,0.361446600058116,1.1616334000136703,False,near-rnd3,10,5,2,3.125,1,up,8,0
68,2,True,1.8125368000473827,800.0,50.0,33.0,10,False,2,down,0.16666666666666666,16,0.17520069994498044,0.41438700002618134,0.5895876999711618,0.5230482999468222,True,near-160,10,3,3,1.875,1,down,4,0
69,2,True,1.7605346000054851,800.0,50.0,33.0,0,False,2,up,0.16666666666666666,28,0,0.49729750002734363,0.49729750002734363,0.6588411000557244,True,near-000,10,4,3,2.5,1,up,8,0
70,3,True,0.9360386999323964,800.0,50.0,33.0,5,False,2,up,0.16666666666666666,28,0.10246730002108961,0.5176315000280738,0.6200988000491634,0.42149090010207146,True,near-080,10,4,3,2.5,1,up,8,0
71,1,True,0.967077900073491,800.0,50.0,33.0,10,False,2,down,0.16666666666666666,12,0.17003100004512817,0.22564730001613498,0.39567830006126314,0.935000600060448,True,near-160,11,1,1,0.625,1,down,4,0
72,3,True,0.9201713999500498,800.0,50.0,33.0,5,False,2,up,0.16666666666666666,28,0.10214950004592538,0.5026049999287352,0.6047544999746606,0.4979033999843523,True,near-080,11,5,4,3.125,1,up,8,0
73,1,True,1.1696106999879703,800.0,50.0,33.0,0,False,2,up,0.16666666666666666,28,0,0.4839281999738887,0.4839281999738887,0.5634067000355572,True,near-000,11,5,4,3.125,1,up,8,0
74,2,True,1.163364200037904,800.0,50.0,33.0,15,False,2,up,0.16666666666666666,16,0.25556359998881817,0.310690899961628,0.5662544999504462,0.47772780002560467,True,near-240,11,4,3,2.5,1,up,8,0
75,4,True,0.869442000053823,800.0,800.0,50.0,0,False,0,up,0.16666666666666666,16,0,0.32834609993733466,0.32834609993733466,0.6240102000301704,True,near-rndm,11,4,3,2.5,1,up,8,0
76,1,True,0.9695783999050036,800.0,33.0,50.0,0,False,3,up,0.16666666666666666,28,0,0.4650029999902472,0.4650029999902472,1.1668486000271514,False,near-rnd3,11,1,0,0.625,1,up,8,0
77,2,True,1.4798443999607116,800.0,100.0,50.0,0,False,1,down,0.16666666666666666,16,0,0.30668989999685436,0.30668989999685436,0.7247203000588343,True,near-rnd2,11,4,3,2.5,1,down,4,0
78,3,True,2.289782000007108,800.0,800.0,50.0,0,False,0,up,0.16666666666666666,16,0,0.30425219994504005,0.30425219994504005,0.5342346000252292,True,near-rndm,12,5,4,3.125,1,up,8,0
79,1,True,2.4139032000675797,800.0,50.0,33.0,0,False,2,up,0.16666666666666666,28,0,0.4861693000420928,0.4861693000420928,0.6530757999280468,True,near-000,12,6,5,3.75,1,up,8,0
80,3,True,0.8792654999997467,800.0,33.0,50.0,0,False,3,up,0.16666666666666666,28,0,0.4878841999452561,0.4878841999452561,0.9818528000032529,False,near-rnd3,12,2,0,1.25,1,up,8,0
81,2,True,5.053499100031331,800.0,50.0,33.0,5,False,2,up,0.16666666666666666,28,0.09613289998378605,0.5098259000806138,0.6059588000643998,0.6428639000514522,True,near-080,12,6,5,3.75,1,up,8,0
82,2,True,2.274246699991636,800.0,100.0,50.0,0,False,1,down,0.16666666666666666,16,0,0.3078249000245705,0.3078249000245705,1.0440823999233544,False,near-rnd2,12,5,3,3.125,1,down,4,0
83,2,True,0.9078475999413058,800.0,50.0,33.0,15,False,2,up,0.16666666666666666,16,0.2601962999906391,0.31200319994241,0.5721994999330491,0.5340691999299452,True,near-240,12,5,4,3.125,1,up,8,0
84,4,True,1.0695249000564218,800.0,50.0,33.0,10,False,2,down,0.16666666666666666,12,0.187766500050202,0.251763999927789,0.439530499977991,0.9443915999727324,False,near-160,12,2,1,1.25,1,down,4,0
85,2,True,1.1664256999501958,800.0,50.0,33.0,15,False,2,up,0.16666666666666666,16,0.26192750001791865,0.2962359000230208,0.5581634000409395,0.5297591999405995,True,near-240,13,6,5,3.75,1,up,8,0
86,1,True,2.258544299984351,800.0,33.0,50.0,0,False,3,up,0.16666666666666666,36,0,0.5995981999440119,0.5995981999440119,0.7554703999776393,True,near-rnd3,13,1,1,0.625,1,up,8,0
87,2,True,2.2361088000470772,800.0,800.0,50.0,0,False,0,up,0.16666666666666666,16,0,0.2921296999556944,0.2921296999556944,0.7168132999213412,False,near-rndm,13,6,4,3.75,1,up,8,0
88,1,True,0.7565141000086442,800.0,50.0,33.0,10,False,2,down,0.16666666666666666,12,0.1683833000715822,0.34064629999920726,0.5090296000707895,0.757085399935022,False,near-160,13,3,1,1.875,1,down,4,0
89,3,True,1.3226324000861496,800.0,100.0,50.0,0,False,1,down,0.16666666666666666,16,0,0.3182423000689596,0.3182423000689596,0.7117458001011983,False,near-rnd2,13,6,3,3.75,1,down,4,0
90,4,True,1.1007138999411836,800.0,50.0,33.0,5,False,2,down,0.16666666666666666,24,0.10584900004323572,0.44312840001657605,0.5489774000598118,0.7884919999632984,True,near-080,13,1,1,0.625,1,down,4,0
91,1,True,1.5211438999976963,800.0,50.0,33.0,0,False,2,down,0.16666666666666666,24,0,0.4245233000256121,0.4245233000256121,0.7594885999569669,True,near-000,13,1,1,0.625,1,down,4,0
92,2,True,1.0111747999908403,800.0,50.0,33.0,15,False,2,down,0.16666666666666666,12,0.2559886999661103,0.23779080004896969,0.49377950001508,0.660594500019215,False,near-240,14,1,0,0.625,1,down,4,0
93,1,True,1.3499495999421924,800.0,800.0,50.0,0,False,0,up,0.16666666666666666,16,0,0.28550630004610866,0.28550630004610866,0.8233058999758214,True,near-rndm,14,7,5,4.375,1,up,8,0
94,1,True,0.8740233000135049,800.0,50.0,33.0,0,False,2,down,0.16666666666666666,24,0,0.42140069999732077,0.42140069999732077,0.7844641000265256,False,near-000,14,2,1,1.25,1,down,4,0
95,1,True,0.7874427000060678,800.0,100.0,50.0,0,False,1,down,0.16666666666666666,16,0,0.30049320007674396,0.30049320007674396,0.9047904000617564,False,near-rnd2,14,7,3,4.375,1,down,4,0
96,1,True,1.6477186999982223,800.0,50.0,33.0,10,False,2,down,0.16666666666666666,12,0.17168480006512254,0.23196389991790056,0.4036486999830231,0.894097900018096,False,near-160,14,4,1,2.5,1,down,4,0
97,3,True,1.4249263999518007,800.0,50.0,33.0,5,False,2,down,0.16666666666666666,24,0.10441400005947798,0.4601538999704644,0.5645679000299424,3.14449410000816,True,near-080,14,2,2,1.25,1,down,4,0
98,1,True,1.553651100024581,800.0,33.0,50.0,0,False,3,up,0.16666666666666666,36,0,0.5955050999764353,0.5955050999764353,0.8911687000654638,False,near-rnd3,14,2,1,1.25,1,up,8,0
99,1,True,1.64707870001439,800.0,33.0,50.0,0,False,3,up,0.16666666666666666,36,0,0.5983737000497058,0.5983737000497058,0.6389776999130845,False,near-rnd3,15,3,1,1.875,1,up,8,0
100,3,True,1.5781435000244528,800.0,800.0,50.0,0,False,0,up,0.16666666666666666,16,0,0.3103629000252113,0.3103629000252113,0.7958582000574097,True,near-rndm,15,8,6,5.0,1,up,8,0
101,2,True,1.9938535999972373,800.0,50.0,33.0,0,False,2,down,0.16666666666666666,24,0,0.4320142000215128,0.4320142000215128,0.7840770999900997,False,near-000,15,3,1,1.875,1,down,4,0
102,1,True,0.9389796999748796,800.0,50.0,33.0,15,False,2,down,0.16666666666666666,12,0.25279109994880855,0.23560919996816665,0.4884002999169752,0.6264633999671787,True,near-240,15,2,1,1.25,1,down,4,0
103,2,True,1.3708069999702275,800.0,100.0,50.0,0,False,1,up,0.16666666666666666,18,0,0.33270859997719526,0.33270859997719526,0.8724434999749064,True,near-rnd2,15,1,1,0.625,1,up,2,0
104,1,True,1.3098344000754878,800.0,50.0,33.0,5,False,2,down,0.16666666666666666,24,0.08747879997827113,0.42238959996029735,0.5098683999385685,0.5955569000216201,True,near-080,15,3,3,1.875,1,down,4,0
105,1,True,1.2575046999845654,800.0,50.0,33.0,10,False,2,up,0.16666666666666666,14,0.1688766999868676,0.27464950003195554,0.44352620001882315,0.6374072000617161,True,near-160,15,1,1,0.625,1,up,2,0
106,1,True,1.1602006999310106,800.0,50.0,33.0,5,False,2,down,0.16666666666666666,20,0.08932310005184263,0.3609857999254018,0.45030889997724444,0.7764706000452861,False,near-080,16,1,0,0.625,1,down,4,0
107,3,True,1.0521147000836208,800.0,800.0,50.0,0,False,0,up,0.16666666666666666,16,0,0.3174713999032974,0.3174713999032974,0.9082263000309467,True,near-rndm,16,9,7,5.625,1,up,8,1
108,2,True,1.03872529999353,800.0,50.0,33.0,10,False,2,up,0.16666666666666666,14,0.17750740004703403,0.2805982999270782,0.4581056999741122,0.9328320999629796,True,near-160,16,2,2,1.25,2,up,2,0
109,1,True,0.7977884000865743,800.0,33.0,50.0,0,False,3,up,0.16666666666666666,36,0,0.6006359000457451,0.6006359000457451,0.688138399971649,False,near-rnd3,16,4,1,2.5,1,up,8,0
110,2,True,2.026659000082873,800.0,50.0,33.0,15,False,2,down,0.16666666666666666,12,0.2607807999011129,0.24853340000845492,0.5093141999095678,0.690770799992606,True,near-240,16,3,2,1.875,1,down,4,0
111,3,True,0.8885809999192134,800.0,100.0,50.0,0,False,1,up,0.16666666666666666,18,0,0.35411549999844283,0.35411549999844283,0.9264862999552861,False,near-rnd2,16,2,1,1.25,2,up,2,0
112,5,True,0.9452073000138626,800.0,50.0,33.0,0,False,2,down,0.16666666666666666,24,0,0.47186530008912086,0.47186530008912086,0.7097337000304833,True,near-000,16,4,2,2.5,1,down,4,0
113,2,True,1.0325711999321356,800.0,50.0,33.0,15,False,2,down,0.16666666666666666,12,0.260131899965927,0.25474479992408305,0.5148766998900101,0.8374679000116885,True,near-240,17,4,3,2.5,1,down,4,0
114,3,True,1.1295967000769451,800.0,50.0,33.0,5,False,2,down,0.16666666666666666,20,0.09868830000050366,0.3751478000776842,0.4738361000781879,0.726316999993287,True,near-080,17,2,1,1.25,1,down,4,0
115,1,True,0.8142072000773624,800.0,50.0,33.0,0,False,2,down,0.16666666666666666,24,0,0.4275154999922961,0.4275154999922961,0.849998600082472,False,near-000,17,5,2,3.125,1,down,4,0
116,2,True,1.0106122000142932,800.0,50.0,33.0,10,False,2,up,0.16666666666666666,14,0.18002420000266284,0.28431069990620017,0.464334899908863,0.5872324999654666,True,near-160,17,3,3,1.875,2,up,2,0
117,2,True,1.8426181999966502,800.0,800.0,50.0,0,False,0,down,0.16666666666666666,14,0,0.26864479994401336,0.26864479994401336,0.5716685999650508,True,near-rndm,17,1,1,0.625,1,down,2,0
118,4,True,1.850249599898234,800.0,33.0,50.0,0,False,3,up,0.16666666666666666,52,0,0.8804574999958277,0.8804574999958277,0.4745240000775084,True,near-rnd3,17,1,1,0.625,1,up,16,0
119,2,True,1.6341823999537155,800.0,100.0,50.0,0,False,1,up,0.16666666666666666,18,0,0.33741439995355904,0.33741439995355904,0.6705950000323355,True,near-rnd2,17,3,2,1.875,2,up,2,0
120,3,True,0.8860403000144288,800.0,800.0,50.0,0,False,0,down,0.16666666666666666,14,0,0.2791704999981448,0.2791704999981448,0.7843353999778628,True,near-rndm,18,2,2,1.25,2,down,2,0
121,2,True,0.8015922999475151,800.0,33.0,50.0,0,False,3,up,0.16666666666666666,52,0,0.859448799979873,0.859448799979873,0.7330050999298692,True,near-rnd3,18,2,2,1.25,1.0,up,16,0
122,3,True,1.4121286000590771,800.0,50.0,33.0,5,False,2,down,0.16666666666666666,20,0.105961799970828,0.38773029996082187,0.49369209993164986,0.8982078999979421,False,near-080,18,3,1,1.875,1,down,4,0
123,1,True,1.0777557999826968,800.0,50.0,33.0,10,False,2,up,0.16666666666666666,14,0.1726273000240326,0.27349739999044687,0.44612470001447946,0.5790500000584871,False,near-160,18,4,3,2.5,2,up,2,0
124,5,True,0.7934045000001788,800.0,50.0,33.0,15,False,2,down,0.16666666666666666,12,0.2669367000926286,0.2594899999676272,0.5264267000602558,0.584332300000824,True,near-240,18,5,4,3.125,1,down,4,0
125,2,True,1.2712204999988899,800.0,100.0,50.0,0,False,1,up,0.16666666666666666,18,0,0.34812990005593747,0.34812990005593747,0.7725211000069976,True,near-rnd2,18,4,3,2.5,2,up,2,0
126,2,True,1.37289390002843,800.0,50.0,33.0,0,False,2,up,0.16666666666666666,26,0,0.4689557000529021,0.4689557000529021,0.7899744999594986,True,near-000,18,1,1,0.625,1,up,2,0
127,2,True,0.962972000008449,800.0,100.0,50.0,0,False,1,up,0.16666666666666666,18,0,0.3453052999684587,0.3453052999684587,0.8782082999823615,False,near-rnd2,19,5,3,3.125,2,up,2,0
128,3,True,0.7520677000284195,800.0,50.0,33.0,5,False,2,down,0.16666666666666666,20,0.10154900001361966,0.372772500035353,0.47432150004897267,0.9425525999395177,False,near-080,19,4,1,2.5,1,down,4,0
129,2,True,1.0829225999768823,800.0,33.0,50.0,0,False,3,up,0.16666666666666666,52,0,0.863168100011535,0.863168100011535,0.41799009998794645,True,near-rnd3,19,3,3,1.875,1.0,up,16,0
130,2,True,0.9770151999546215,800.0,50.0,33.0,10,False,2,up,0.16666666666666666,14,0.17294379998929799,0.2715870999963954,0.4445308999856934,0.8258697000565007,True,near-160,19,5,4,3.125,2,up,2,0
131,3,True,1.2750063999556005,800.0,50.0,33.0,15,False,2,down,0.16666666666666666,12,0.25863680010661483,0.2592463999753818,0.5178832000819966,0.6537717999890447,True,near-240,19,6,5,3.75,1,down,4,0
132,3,True,0.9206898000556976,800.0,50.0,33.0,0,False,2,up,0.16666666666666666,26,0,0.4866168999578804,0.4866168999578804,0.9321729999501258,True,near-000,19,2,2,1.25,2,up,2,0
133,2,True,0.7914119999622926,800.0,800.0,50.0,0,False,0,down,0.16666666666666666,14,0,0.2711636999156326,0.2711636999156326,0.5554554000264034,True,near-rndm,19,3,3,1.875,2,down,2,0
134,2,True,0.8253662999486551,800.0,800.0,50.0,0,False,0,down,0.16666666666666666,14,0,0.26447659998666495,0.26447659998666495,0.7150826000142843,False,near-rndm,20,4,3,2.5,2,down,2,0
135,2,True,1.9614876999985427,800.0,100.0,50.0,0,False,1,up,0.16666666666666666,18,0,0.33854199992492795,0.33854199992492795,0.9357415999984369,False,near-rnd2,20,6,3,3.75,2,up,2,0
136,3,True,0.8979952000081539,800.0,33.0,50.0,0,False,3,down,0.16666666666666666,44,0,0.8730118999956176,0.8730118999956176,0.7718360000289977,False,near-rnd3,20,1,0,0.625,0.5,down,8,0
137,1,True,0.8128650999860838,800.0,50.0,33.0,10,False,2,up,0.16666666666666666,14,0.17092399997636676,0.26048529997933656,0.4314092999557033,1.0004490999272093,False,near-160,20,6,4,3.75,2,up,2,0
138,3,True,0.9682691000634804,800.0,50.0,33.0,5,False,2,up,0.16666666666666666,22,0.09833429998252541,0.40493509999942034,0.5032693999819458,0.6304827999556437,True,near-080,20,1,1,0.625,1,up,2,0
139,2,True,0.8732995999744162,800.0,50.0,33.0,15,False,2,down,0.16666666666666666,8,0.254452700028196,0.17209690005984157,0.42654960008803755,1.9848533999174833,True,near-240,20,1,1,0.625,1,down,4,0
140,2,True,1.0881416000192985,800.0,50.0,33.0,0,False,2,up,0.16666666666666666,26,0,0.4645840999437496,0.4645840999437496,0.6840208999346942,True,near-000,20,3,3,1.875,2,up,2,0
141,1,True,1.6209143999731168,800.0,800.0,50.0,0,False,0,down,0.16666666666666666,14,0,0.2505441000685096,0.2505441000685096,0.9525178000330925,True,near-rndm,21,5,4,3.125,2,down,2,0
142,1,True,1.3960145999444649,800.0,50.0,33.0,15,False,2,down,0.16666666666666666,8,0.2522944000083953,0.17131560004781932,0.42361000005621463,1.3593302000081167,False,near-240,21,2,1,1.25,1,down,4,0
143,2,True,0.9062357000075281,800.0,50.0,33.0,0,False,2,up,0.16666666666666666,26,0,0.4576316000893712,0.4576316000893712,1.343924800050445,False,near-000,21,4,3,2.5,2,up,2,0
144,1,True,0.8319977999199182,800.0,100.0,50.0,0,False,1,up,0.16666666666666666,18,0,0.32835560000967234,0.32835560000967234,0.8342455000383779,False,near-rnd2,21,7,3,4.375,2,up,2,0
145,3,True,0.9902535999426618,800.0,50.0,33.0,5,False,2,up,0.16666666666666666,22,0.09732649999205023,0.40324570005759597,0.5005722000496462,0.7559936000034213,False,near-080,21,2,1,1.25,2,up,2,0
146,3,True,3.155141199938953,800.0,33.0,50.0,0,False,3,down,0.16666666666666666,44,0,0.7401843999978155,0.7401843999978155,0.7027879999950528,True,near-rnd3,21,2,1,1.25,1,down,8,0
147,3,True,0.8777959999861196,800.0,50.0,33.0,10,False,2,up,0.16666666666666666,14,0.18357220001053065,0.2925430000759661,0.47611520008649677,0.5952184000052512,True,near-160,21,7,5,4.375,2,up,2,0
148,4,True,0.8278271000599489,800.0,100.0,50.0,0,False,1,up,0.16666666666666666,18,0,0.3606405999744311,0.3606405999744311,0.8816667000064626,True,near-rnd2,22,8,4,5.0,2,up,2,0
149,3,True,0.7977215999271721,800.0,50.0,33.0,5,False,2,up,0.16666666666666666,22,0.0988963000709191,0.41506090003531426,0.5139572001062334,0.5451066000387073,True,near-080,22,3,2,1.875,2,up,2,0
150,4,True,1.8789405000861734,800.0,800.0,50.0,0,False,0,down,0.16666666666666666,14,0,0.2916827999288216,0.2916827999288216,0.5696799999568611,True,near-rndm,22,6,5,3.75,2,down,2,0
151,2,True,0.9592760999221355,800.0,33.0,50.0,0,False,3,down,0.16666666666666666,44,0,0.7318248000228778,0.7318248000228778,0.5060212999815121,True,near-rnd3,22,3,2,1.875,1,down,8,0
152,2,True,1.4416240999707952,800.0,50.0,33.0,15,False,2,down,0.16666666666666666,8,0.2585660999175161,0.17974880000110716,0.43831489991862327,0.7579960000002757,False,near-240,22,3,1,1.875,1,down,4,0
153,2,True,1.2482894000131637,800.0,50.0,33.0,10,False,2,up,0.16666666666666666,14,0.17363490001298487,0.2754888000199571,0.449123700032942,0.8085777999367565,False,near-160,22,8,5,5.0,2,up,2,0
154,2,True,0.6650898999068886,800.0,50.0,33.0,0,False,2,up,0.16666666666666666,26,0,0.4937586000887677,0.4937586000887677,0.6797701000468805,False,near-000,22,5,3,3.125,2,up,2,0
155,2,True,0.9230879000388086,800.0,100.0,50.0,0,False,1,up,0.16666666666666666,18,0,0.3341923999832943,0.3341923999832943,0.6172468999866396,True,near-rnd2,23,9,5,5.625,2,up,2,1
156,3,True,0.9177526000421494,800.0,800.0,50.0,0,False,0,down,0.16666666666666666,14,0,0.2666993000311777,0.2666993000311777,0.6657825000584126,True,near-rndm,23,7,6,4.375,2,down,2,0
157,1,True,1.0491407999070361,800.0,50.0,33.0,15,False,2,down,0.16666666666666666,8,0.2520010999869555,0.16703699994832277,0.4190380999352783,0.9039916000328958,False,near-240,23,4,1,2.5,1,down,4,0
158,1,True,1.1888194000348449,800.0,50.0,33.0,10,False,2,up,0.16666666666666666,14,0.16944630001671612,0.26888079999480397,0.4383271000115201,0.751188600086607,True,near-160,23,9,6,5.625,2,up,2,1
159,2,True,1.1073213000781834,800.0,50.0,33.0,5,False,2,up,0.16666666666666666,22,0.09869070001877844,0.40225529996678233,0.5009459999855608,0.492729099933058,False,near-080,23,4,2,2.5,2,up,2,0
160,1,True,1.211009299964644,800.0,33.0,50.0,0,False,3,down,0.16666666666666666,44,0,0.724188799969852,0.724188799969852,0.7472102999454364,False,near-rnd3,23,4,2,2.5,1,down,8,0
161,2,True,0.8570646999869496,800.0,50.0,33.0,0,False,2,up,0.16666666666666666,26,0,0.45768089999910444,0.45768089999910444,0.6050176999997348,False,near-000,23,6,3,3.75,2,up,2,0
162,2,True,1.4864673999836668,800.0,50.0,33.0,5,False,2,up,0.16666666666666666,22,0.09605090005788952,0.39573340001516044,0.49178430007304996,0.8794364999048412,True,near-080,24,5,3,3.125,2,up,2,0
163,2,True,2.480771000031382,800.0,33.0,50.0,0,False,3,down,0.16666666666666666,44,0,0.7401036000810564,0.7401036000810564,0.5554413000354543,True,near-rnd3,24,5,3,3.125,1,down,8,0
164,2,True,1.199300599982962,800.0,100.0,50.0,0,False,1,up,0.16666666666666666,18,0,0.33692859997972846,0.33692859997972846,1.1185641000047326,False,near-rnd2,24,10,5,6.25,2,up,2,1
165,1,True,0.9287383999908343,800.0,50.0,33.0,15,False,2,up,0.16666666666666666,10,0.2543242000974715,0.21157139993738383,0.4658956000348553,0.7089183999923989,False,near-240,24,1,0,0.625,1,up,2,0
166,3,True,2.5402693999931216,800.0,50.0,33.0,10,False,2,up,0.16666666666666666,14,0.18491819989867508,0.31222570000682026,0.49714389990549535,0.6785466999281198,False,near-160,24,10,6,6.25,2,up,2,1
167,1,True,1.1786151999840513,800.0,50.0,33.0,0,False,2,up,0.16666666666666666,26,0,0.45595639990642667,0.45595639990642667,0.9654482000041753,False,near-000,24,7,3,4.375,2,up,2,0
168,2,True,1.5246519000502303,800.0,800.0,50.0,0,False,0,down,0.16666666666666666,14,0,0.26725519995670766,0.26725519995670766,0.6392523000249639,True,near-rndm,24,8,7,5.0,2,down,2,0
169,1,True,0.8363250000402331,800.0,800.0,50.0,0,False,0,down,0.16666666666666666,14,0,0.2587707999628037,0.2587707999628037,0.5686984999338165,True,near-rndm,25,9,8,5.625,2,down,2,1
170,2,True,1.1992608000291511,800.0,33.0,50.0,0,False,3,down,0.16666666666666666,44,0,0.7365089999511838,0.7365089999511838,0.8162097999593243,False,near-rnd3,25,6,3,3.75,1,down,8,0
171,2,True,1.0832859000656754,800.0,50.0,33.0,0,False,2,up,0.16666666666666666,26,0,0.4630108999554068,0.4630108999554068,0.5042574000544846,True,near-000,25,8,4,5.0,2,up,2,0
172,1,True,2.3131771999178454,800.0,50.0,33.0,10,False,2,up,0.16666666666666666,14,0.16842169989831746,0.3361041999887675,0.504525899887085,0.6630053999833763,False,near-160,25,11,6,6.875,2,up,2,1
173,3,True,1.233739999937825,800.0,50.0,33.0,5,False,2,up,0.16666666666666666,22,0.09471720003057271,0.40313079999759793,0.49784800002817065,0.6336916000582278,False,near-080,25,6,3,3.75,2,up,2,0
174,1,True,1.1411044999258593,800.0,100.0,50.0,0,False,1,up,0.16666666666666666,18,0,0.3210544999456033,0.3210544999456033,0.6543947999598458,True,near-rnd2,25,11,6,6.875,2,up,2,1
175,2,True,2.222767199971713,800.0,50.0,33.0,15,False,2,up,0.16666666666666666,10,0.25535949994809926,0.20564490009564906,0.4610044000437483,0.6004929000046104,False,near-240,25,2,0,1.25,2,up,2,0
176,2,True,0.8563114999560639,800.0,50.0,33.0,0,False,2,up,0.16666666666666666,26,0,0.4633412000257522,0.4633412000257522,0.8271408000728115,False,near-000,26,9,4,5.625,2,up,2,1
177,1,True,0.7254767999984324,800.0,50.0,33.0,15,False,2,up,0.16666666666666666,10,0.2501988000003621,0.20598800003062934,0.45618680003099144,1.1361838999437168,True,near-240,26,3,1,1.875,2,up,2,0
178,1,True,0.8544427999295294,800.0,33.0,50.0,0,False,3,down,0.16666666666666666,44,0,0.7242699000053108,0.7242699000053108,0.5232581000309438,True,near-rnd3,26,7,4,4.375,1,down,8,0
179,2,True,0.845875599887222,800.0,800.0,50.0,0,False,0,down,0.16666666666666666,13,0,0.3292490999447182,0.3292490999447182,0.546765899984166,True,near-rndm,26,1,1,0.625,2,down,1,0
180,2,True,2.135099200066179,800.0,50.0,33.0,10,False,2,up,0.16666666666666666,14,0.17246310005430132,0.27429560001473874,0.44675870006904006,0.8470655999844894,False,near-160,26,12,6,7.5,2,up,2,1
181,2,True,1.0723434999817982,800.0,100.0,50.0,0,False,1,up,0.16666666666666666,18,0,0.3393850000575185,0.3393850000575185,0.7694485000101849,False,near-rnd2,26,12,6,7.5,2,up,2,1
182,3,True,2.595739600015804,800.0,50.0,33.0,5,False,2,up,0.16666666666666666,22,0.10143220005556941,0.4118069000542164,0.5132391001097858,0.619233199977316,True,near-080,26,7,4,4.375,2,up,2,0
183,2,True,1.2238526999717578,800.0,50.0,33.0,10,False,2,up,0.16666666666666666,14,0.1758712000446394,0.2699271000456065,0.4457983000902459,0.8676230000564829,False,near-160,27,13,6,8.125,2,up,2,1
184,2,True,1.4623677000636235,800.0,800.0,50.0,0,False,0,down,0.16666666666666666,13,0,0.24297470005694777,0.24297470005694777,0.5715477999765426,True,near-rndm,27,2,2,1.25,2,down,1,0
185,3,True,1.0453048000345007,800.0,100.0,50.0,0,False,1,up,0.16666666666666666,18,0,0.347782599972561,0.347782599972561,0.901807599933818,True,near-rnd2,27,13,7,8.125,2,up,2,1
186,1,True,0.853114299941808,800.0,50.0,33.0,5,False,2,up,0.16666666666666666,22,0.09381969994865358,0.38719929999206215,0.48101899994071573,0.6742319000186399,False,near-080,27,8,4,5.0,2,up,2,0
187,2,True,1.5153362000128254,800.0,50.0,33.0,0,False,2,up,0.16666666666666666,26,0,0.45784209994599223,0.45784209994599223,0.8124268000246957,True,near-000,27,10,5,6.25,2,up,2,1
188,1,True,0.999170400085859,800.0,33.0,50.0,0,False,3,down,0.16666666666666666,44,0,0.7253262000158429,0.7253262000158429,0.7262324000475928,False,near-rnd3,27,8,4,5.0,1,down,8,0
189,2,True,0.9064796000020579,800.0,50.0,33.0,15,False,2,up,0.16666666666666666,10,0.25228020001668483,0.21002829994540662,0.46230849996209145,0.533718099934049,True,near-240,27,4,2,2.5,2,up,2,0
190,2,True,0.9666853999951854,800.0,800.0,50.0,0,False,0,down,0.16666666666666666,13,0,0.24251469993032515,0.24251469993032515,0.6839926999527961,True,near-rndm,28,3,3,1.875,2,down,1,0
191,2,True,1.503737400053069,800.0,100.0,50.0,0,False,1,up,0.16666666666666666,18,0,0.3373482000315562,0.3373482000315562,0.5881723000202328,True,near-rnd2,28,14,8,8.75,2,up,2,1
192,1,True,1.318541800021194,800.0,50.0,33.0,5,False,2,up,0.16666666666666666,22,0.09029019996523857,0.401620400021784,0.4919105999870226,0.5441442000446841,False,near-080,28,9,4,5.625,2,up,2,1
193,2,True,1.7681461999891326,800.0,50.0,33.0,10,False,2,up,0.16666666666666666,15,0.17818599997553974,0.290768799954094,0.46895479992963374,0.9462208999320865,False,near-160,28,1,0,0.625,2,up,1,0
194,2,True,0.9614416999975219,800.0,50.0,33.0,15,False,2,up,0.16666666666666666,10,0.25115160003770143,0.20199199998751283,0.45314360002521425,0.8722349000163376,False,near-240,28,5,2,3.125,2,up,2,0
195,2,True,1.1141001000069082,800.0,33.0,50.0,0,False,3,down,0.16666666666666666,44,0,0.7389613999985158,0.7389613999985158,1.3492816999787465,False,near-rnd3,28,9,4,5.625,1,down,8,1
196,4,True,0.9117944999597967,800.0,50.0,33.0,0,False,2,up,0.16666666666666666,26,0,0.6225131000392139,0.6225131000392139,0.47647720004897565,True,near-000,28,11,6,6.875,2,up,2,1
197,3,True,1.100896899937652,800.0,50.0,33.0,10,False,2,up,0.16666666666666666,15,0.1832305999705568,0.29117219999898225,0.47440279996953905,0.872636399930343,True,near-160,29,2,1,1.25,2,up,1,0
198,4,True,0.8837789000244811,800.0,50.0,33.0,15,False,2,up,0.16666666666666666,10,0.26608100009616464,0.23121419991366565,0.4972952000098303,0.6002137999748811,True,near-240,29,6,3,3.75,2,up,2,0
199,1,True,1.0246138999937102,800.0,33.0,50.0,0,False,3,up,0.16666666666666666,46,0,0.758978100027889,0.758978100027889,0.6738143000984564,True,near-rnd3,29,1,1,0.625,1,up,2,0
200,1,True,1.0568930000299588,800.0,800.0,50.0,0,False,0,down,0.16666666666666666,13,0,0.23442280001472682,0.23442280001472682,0.8260521999327466,True,near-rndm,29,4,4,2.5,2,down,1,0
201,1,True,2.0443565999157727,800.0,100.0,50.0,0,False,1,up,0.16666666666666666,18,0,0.3276276000542566,0.3276276000542566,0.7015344999963418,False,near-rnd2,29,15,8,9.375,2,up,2,1
202,2,True,0.9350739999208599,800.0,50.0,33.0,5,False,2,up,0.16666666666666666,22,0.09060340002179146,0.3996004000073299,0.49020380002912134,0.7674565999768674,True,near-080,29,10,5,6.25,2,up,2,1
203,3,True,0.802960200002417,800.0,50.0,33.0,0,False,2,up,0.16666666666666666,26,0,0.46053770009893924,0.46053770009893924,0.7557617999846116,True,near-000,29,12,7,7.5,2,up,2,1
204,3,True,0.8652483000187203,800.0,50.0,33.0,15,False,2,up,0.16666666666666666,10,0.2566821000073105,0.2157894999254495,0.47247159993276,0.5235987999476492,True,near-240,30,7,4,4.375,2,up,2,0
205,2,True,1.1602487000636756,800.0,100.0,50.0,0,False,1,up,0.16666666666666666,18,0,0.33066159998998046,0.33066159998998046,0.9007356000365689,True,near-rnd2,30,16,9,10.0,2,up,2,1
206,2,True,0.8927863000426441,800.0,800.0,50.0,0,False,0,down,0.16666666666666666,13,0,0.2494257000507787,0.2494257000507787,0.6419955999590456,True,near-rndm,30,5,5,3.125,2,down,1,0
207,1,True,1.2758253999054432,800.0,50.0,33.0,10,False,2,up,0.16666666666666666,15,0.17205149994697422,0.2843017999548465,0.4563532999018207,0.4035934000276029,True,near-160,30,3,2,1.875,2,up,1,0
208,1,True,1.5186910000629723,800.0,50.0,33.0,5,False,2,up,0.16666666666666666,22,0.09248039999511093,0.3854808999458328,0.4779612999409437,0.40071289998013526,True,near-080,30,11,6,6.875,2,up,2,1
209,3,True,1.5538300999905914,800.0,50.0,33.0,0,False,2,up,0.16666666666666666,26,0,0.4701798999449238,0.4701798999449238,0.9943530999589711,False,near-000,30,13,7,8.125,2,up,2,1
210,1,True,1.1028042000252753,800.0,33.0,50.0,0,False,3,up,0.16666666666666666,46,0,0.7570465999888256,0.7570465999888256,0.670797900063917,True,near-rnd3,30,2,2,1.25,2,up,2,0
211,2,True,1.0640573999844491,800.0,50.0,33.0,15,False,2,up,0.16666666666666666,10,0.2588094000238925,0.20430950005538762,0.46311890007928014,0.6009420000482351,True,near-240,31,8,5,5.0,2,up,2,0
212,2,True,0.7704243999905884,800.0,800.0,50.0,0,False,0,down,0.16666666666666666,13,0,0.24767670000437647,0.24767670000437647,0.6156496000476182,True,near-rndm,31,6,6,3.75,2,down,1,0
213,1,True,1.5348587000044063,800.0,50.0,33.0,10,False,2,up,0.16666666666666666,15,0.17001470003742725,0.27890390006359667,0.4489186001010239,0.7158767000073567,False,near-160,31,4,2,2.5,2,up,1,0
214,1,True,0.8899700000183657,800.0,100.0,50.0,0,False,1,up,0.16666666666666666,18,0,0.32717659999616444,0.32717659999616444,0.5805229999823496,True,near-rnd2,31,17,10,10.625,2,up,2,2
215,4,True,1.3485104000428692,800.0,33.0,50.0,0,False,3,up,0.16666666666666666,46,0,0.856934400042519,0.856934400042519,0.6045608000131324,True,near-rnd3,31,3,3,1.875,2,up,2,0
216,3,True,0.8610426998930052,800.0,50.0,33.0,0,False,2,up,0.16666666666666666,26,0,0.47928550001233816,0.47928550001233816,0.6941764999646693,True,near-000,31,14,8,8.75,2,up,2,1
217,4,True,1.0943505000323057,800.0,50.0,33.0,5,False,2,up,0.16666666666666666,22,0.10496979998424649,0.43092189996968955,0.535891699953936,0.6735158999217674,False,near-080,31,12,6,7.5,2,up,2,1
218,1,True,2.12299099995289,800.0,800.0,50.0,0,False,0,down,0.16666666666666666,12,0,0.21908629999961704,0.21908629999961704,0.7055414000060409,True,near-rndm,32,1,1,0.625,2,down,1,0
219,1,True,0.8235107000218704,800.0,50.0,33.0,5,False,2,up,0.16666666666666666,22,0.09079030004795641,0.39458490000106394,0.48537520004902035,0.676874199998565,False,near-080,32,13,6,8.125,2,up,2,1
220,2,True,0.7220174999674782,800.0,50.0,33.0,10,False,2,up,0.16666666666666666,15,0.1748660000739619,0.2852462000446394,0.4601122001186013,0.7859986000694335,False,near-160,32,5,2,3.125,2,up,1,0
221,2,True,1.1180404999759048,800.0,50.0,33.0,15,False,2,up,0.16666666666666666,10,0.25415179994888604,0.21216769993770868,0.4663194998865947,0.9256172999739647,True,near-240,32,9,6,5.625,2,up,2,1
222,4,True,0.9549835999496281,800.0,100.0,50.0,0,False,1,up,0.16666666666666666,18,0,0.3510229999665171,0.3510229999665171,0.6660682000219822,False,near-rnd2,32,18,10,11.25,2,up,2,2
223,2,True,0.9909355000127107,800.0,50.0,33.0,0,False,2,up,0.16666666666666666,26,0,0.46806630003266037,0.46806630003266037,0.8668159000808373,False,near-000,32,15,8,9.375,2,up,2,1
224,1,True,0.8993931000586599,800.0,33.0,50.0,0,False,3,up,0.16666666666666666,46,0,0.7599269000347704,0.7599269000347704,0.5978403999470174,True,near-rnd3,32,4,4,2.5,2,up,2,0
225,2,True,1.3679028999758884,800.0,50.0,33.0,5,False,2,up,0.16666666666666666,23,0.101761500001885,0.41460859996732324,0.5163700999692082,0.7007489999523386,True,near-080,33,1,1,0.625,2,up,1,0
226,1,True,0.9725873999996111,800.0,33.0,50.0,0,False,3,up,0.16666666666666666,46,0,0.7544640999985859,0.7544640999985859,0.7555505000054836,True,near-rnd3,33,5,5,3.125,2,up,2,0
227,4,True,0.9374012000625953,800.0,100.0,50.0,0,False,1,up,0.16666666666666666,18,0,0.35749580000992864,0.35749580000992864,0.7293357999296859,True,near-rnd2,33,19,11,11.875,2,up,2,2
228,1,True,1.6138582000276074,800.0,800.0,50.0,0,False,0,down,0.16666666666666666,12,0,0.218117400072515,0.218117400072515,0.6257933999877423,True,near-rndm,33,2,2,1.25,2,down,1,0
229,1,True,1.4835146999685094,800.0,50.0,33.0,15,False,2,up,0.16666666666666666,10,0.2532170000486076,0.19573889998719096,0.44895590003579855,0.913211099919863,False,near-240,33,10,6,6.25,2,up,2,1
230,3,True,0.9503785000415519,800.0,50.0,33.0,10,False,2,up,0.16666666666666666,15,0.17656819999683648,0.3055080999620259,0.48207629995886236,0.9932656999444589,False,near-160,33,6,2,3.75,2,up,1,0
231,1,True,2.460653099929914,800.0,50.0,33.0,0,False,2,up,0.16666666666666666,26,0,0.4553753000218421,0.4553753000218421,0.9580005999887362,False,near-000,33,16,8,10.0,2,up,2,1
232,2,True,1.4576712999260053,800.0,100.0,50.0,0,False,1,up,0.16666666666666666,18,0,0.33082909998483956,0.33082909998483956,0.8035916000371799,False,near-rnd2,34,20,11,12.5,2,up,2,2
233,4,True,1.3680737999966368,800.0,50.0,33.0,0,False,2,up,0.16666666666666666,26,0,0.493775499984622,0.493775499984622,0.63161159993615,True,near-000,34,17,9,10.625,2,up,2,2
234,2,True,1.083671599975787,800.0,50.0,33.0,15,False,2,up,0.16666666666666666,10,0.25655920000281185,0.21701129991561174,0.4735704999184236,0.8563855000538751,True,near-240,34,11,7,6.875,2,up,2,1
235,3,True,1.243632199941203,800.0,50.0,33.0,5,False,2,up,0.16666666666666666,23,0.10538319998886436,0.4369050998939201,0.5422882998827845,0.4981075000250712,True,near-080,34,2,2,1.25,2,up,1,0
236,1,True,0.8272187999682501,800.0,33.0,50.0,0,False,3,up,0.16666666666666666,46,0,0.8627405000152066,0.8627405000152066,0.4066699999384582,True,near-rnd3,34,6,6,3.75,2,up,2,0
237,2,True,0.9003495000069961,800.0,50.0,33.0,10,False,2,up,0.16666666666666666,15,0.17375720001291484,0.29633869999088347,0.4700959000037983,0.5788620000239462,True,near-160,34,7,3,4.375,2,up,1,0
238,3,True,0.8824531000573188,800.0,800.0,50.0,0,False,0,down,0.16666666666666666,12,0,0.24176779994741082,0.24176779994741082,0.6187341000186279,True,near-rndm,34,3,3,1.875,2,down,1,0
239,1,True,0.9701684999745339,800.0,800.0,50.0,0,False,0,down,0.16666666666666666,12,0,0.22709910001140088,0.22709910001140088,0.5315180999459699,True,near-rndm,35,4,4,2.5,2,down,1,0
240,4,True,1.116813600063324,800.0,33.0,50.0,0,False,3,down,0.16666666666666666,45,0,0.7767332000657916,0.7767332000657916,0.5395990000106394,True,near-rnd3,35,1,1,0.625,2,down,1,0
241,2,True,2.7204222000436857,800.0,50.0,33.0,0,False,2,up,0.16666666666666666,26,0,0.4682930000126362,0.4682930000126362,0.729843300068751,False,near-000,35,18,9,11.25,2,up,2,2
242,2,True,1.3181906000245363,800.0,50.0,33.0,5,False,2,up,0.16666666666666666,23,0.10266009997576475,0.41565340000670403,0.5183134999824688,0.6812912999885157,False,near-080,35,3,2,1.875,2,up,1,0
243,2,True,0.7557200000155717,800.0,100.0,50.0,0,False,1,up,0.16666666666666666,18,0,0.33061280008405447,0.33061280008405447,0.7457273000618443,False,near-rnd2,35,21,11,13.125,2,up,2,2
244,3,True,1.0888065000763163,800.0,50.0,33.0,15,False,2,up,0.16666666666666666,10,0.26449289999436587,0.2174521000124514,0.4819450000068173,0.8380889999680221,False,near-240,35,12,7,7.5,2,up,2,1
245,2,True,1.3057554999832064,800.0,50.0,33.0,10,False,2,up,0.16666666666666666,15,0.1772636000532657,0.2856113000307232,0.4628749000839889,0.7443671999499202,False,near-160,35,8,3,5.0,2,up,1,0
246,3,True,0.690254999906756,800.0,50.0,33.0,15,False,2,up,0.16666666666666666,10,0.2559724999591708,0.2207797000883147,0.47675220004748553,0.6309547000564635,True,near-240,36,13,8,8.125,2,up,2,1
247,1,True,0.7833387999562547,800.0,50.0,33.0,5,False,2,up,0.16666666666666666,23,0.08994299999903888,0.4013681000797078,0.4913111000787467,0.33421000000089407,True,near-080,36,4,3,2.5,2,up,1,0
248,1,True,0.8422369000036269,800.0,800.0,50.0,0,False,0,down,0.16666666666666666,12,0,0.2191252000629902,0.2191252000629902,0.7525484000798315,True,near-rndm,36,5,5,3.125,2,down,1,0
249,1,True,0.9525295000057667,800.0,50.0,33.0,0,False,2,up,0.16666666666666666,27,0,0.5154166000429541,0.5154166000429541,0.5939314001007006,False,near-000,36,1,0,0.625,2,up,1,0
250,2,True,1.1459147999994457,800.0,100.0,50.0,0,False,1,up,0.16666666666666666,19,0,0.35078630002681166,0.35078630002681166,0.7147923000156879,True,near-rnd2,36,1,1,0.625,2,up,1,0
251,1,True,1.142116800067015,800.0,50.0,33.0,10,False,2,up,0.16666666666666666,15,0.17022490000817925,0.28380999993532896,0.4540348999435082,0.7420614999718964,True,near-160,36,9,4,5.625,2,up,1,1
252,2,True,1.8469997000647709,800.0,33.0,50.0,0,False,3,down,0.16666666666666666,45,0,0.8618758999509737,0.8618758999509737,0.30407089996151626,True,near-rnd3,36,2,2,1.25,2,down,1,0
253,1,True,1.5715015000896528,800.0,50.0,33.0,5,False,2,up,0.16666666666666666,23,0.09086949995253235,0.41691370005719364,0.507783200009726,0.968014300102368,False,near-080,37,5,3,3.125,2,up,1,0
254,2,True,2.299928899970837,800.0,800.0,50.0,0,False,0,down,0.16666666666666666,12,0,0.23175069992430508,0.23175069992430508,0.5446393999736756,True,near-rndm,37,6,6,3.75,2,down,1,0
255,3,True,0.8029940000269562,800.0,50.0,33.0,0,False,2,up,0.16666666666666666,27,0,0.48424079990945756,0.48424079990945756,0.7614705000305548,False,near-000,37,2,0,1.25,3,up,1,0
256,1,True,1.096790699986741,800.0,33.0,50.0,0,False,3,down,0.16666666666666666,45,0,0.7424113999586552,0.7424113999586552,0.7030532999197021,False,near-rnd3,37,3,2,1.875,2,down,1,0
257,1,True,0.7414358999812976,800.0,50.0,33.0,15,False,2,up,0.16666666666666666,10,0.24902710004244,0.20807160006370395,0.45709870010614395,0.6213755999924615,False,near-240,37,14,8,8.75,2,up,2,1
258,2,True,0.978857799898833,800.0,50.0,33.0,10,False,2,up,0.16666666666666666,15,0.17777319997549057,0.2945163999684155,0.47228959994390607,0.5038093000184745,True,near-160,37,10,5,6.25,2,up,1,1
259,3,True,0.8593147000065073,800.0,100.0,50.0,0,False,1,up,0.16666666666666666,19,0,0.3766551000298932,0.3766551000298932,0.8530064000515267,False,near-rnd2,37,2,1,1.25,3,up,1,0
260,2,True,0.9247414000565186,800.0,800.0,50.0,0,False,0,down,0.16666666666666666,10,0,0.20266670000273734,0.20266670000273734,1.0353707999456674,True,near-rndm,38,1,1,0.625,2,down,2,0
261,2,True,1.3636565000051633,800.0,50.0,33.0,15,False,2,up,0.16666666666666666,10,0.2601316999644041,0.2162133000092581,0.4763449999736622,0.6634570999303833,False,near-240,38,15,8,9.375,2,up,2,1
262,1,True,1.0258330000797287,800.0,50.0,33.0,0,False,2,up,0.16666666666666666,27,0,0.4739943000022322,0.4739943000022322,0.5007531000301242,True,near-000,38,3,1,1.875,3,up,1,0
263,3,True,0.9309929000446573,800.0,33.0,50.0,0,False,3,down,0.16666666666666666,45,0,0.7651996000204235,0.7651996000204235,0.5127401000354439,False,near-rnd3,38,4,2,2.5,2,down,1,0
264,1,True,1.1582258000271395,800.0,50.0,33.0,5,False,2,up,0.16666666666666666,23,0.08830969990231097,0.40805480000562966,0.4963644999079406,0.6561738000018522,False,near-080,38,6,3,3.75,2,up,1,0
265,2,True,0.8810736000305042,800.0,50.0,33.0,10,False,2,up,0.16666666666666666,15,0.17241260001901537,0.2966704999562353,0.46908309997525066,0.8482738999882713,False,near-160,38,11,5,6.875,2,up,1,1
266,2,True,1.1459156000055373,800.0,100.0,50.0,0,False,1,up,0.16666666666666666,19,0,0.3559236000292003,0.3559236000292003,0.501215299940668,True,near-rnd2,38,3,2,1.875,3,up,1,0
267,1,True,1.1488539000274613,800.0,50.0,33.0,15,False,2,up,0.16666666666666666,10,0.24860160006210208,0.19872350001242012,0.4473251000745222,1.1454356999602169,False,near-240,39,16,8,10.0,2,up,2,1
268,1,True,0.8371880000922829,800.0,50.0,33.0,0,False,2,up,0.16666666666666666,27,0,0.4667247999459505,0.4667247999459505,0.6033541000215337,False,near-000,39,4,1,2.5,3,up,1,0
269,1,True,1.8913207999430597,800.0,50.0,33.0,10,False,2,up,0.16666666666666666,15,0.17083820002153516,0.2863112000050023,0.4571494000265375,0.6069401999702677,True,near-160,39,12,6,7.5,2,up,1,1
270,1,True,4.725746999960393,800.0,100.0,50.0,0,False,1,up,0.16666666666666666,19,0,0.3417378000449389,0.3417378000449389,1.8452359999064356,False,near-rnd2,39,4,2,2.5,3,up,1,0
271,2,True,1.0840352999512106,800.0,50.0,33.0,5,False,2,up,0.16666666666666666,23,0.09441569994669408,0.4223101999377832,0.5167258998844773,0.4948914999840781,True,near-080,39,7,4,4.375,2,up,1,0
272,1,True,0.9114939999999478,800.0,800.0,50.0,0,False,0,down,0.16666666666666666,10,0,0.1886068000458181,0.1886068000458181,0.6493637000676244,True,near-rndm,39,2,2,1.25,2,down,2,0
273,2,True,1.533943900023587,800.0,33.0,50.0,0,False,3,down,0.16666666666666666,45,0,0.8713196000317112,0.8713196000317112,0.2768649000208825,True,near-rnd3,39,5,3,3.125,2,down,1,0
274,1,True,1.346606899984181,800.0,800.0,50.0,0,False,0,down,0.16666666666666666,10,0,0.1859993999823928,0.1859993999823928,1.5762416999787092,True,near-rndm,40,3,3,1.875,2,down,2,0
275,2,True,1.0813435999443755,800.0,50.0,33.0,15,False,2,up,0.16666666666666666,10,0.2603589999489486,0.2159909000620246,0.4763499000109732,0.876610100036487,False,near-240,40,17,8,10.625,2,up,2,2
276,3,True,0.9356269999407232,800.0,50.0,33.0,10,False,2,up,0.16666666666666666,15,0.189089999999851,0.3087985999882221,0.4978885999880731,0.7099786000326276,True,near-160,40,13,7,8.125,2,up,1,1
277,2,True,1.3494907999411225,800.0,100.0,50.0,0,False,1,up,0.16666666666666666,19,0,0.3607224998995662,0.3607224998995662,0.7637129999930039,False,near-rnd2,40,5,2,3.125,3,up,1,0
278,2,True,0.7933654999360442,800.0,33.0,50.0,0,False,3,down,0.16666666666666666,45,0,0.7472326999995857,0.7472326999995857,0.606115399976261,False,near-rnd3,40,6,3,3.75,2,down,1,0
279,1,True,0.8601095000049099,800.0,50.0,33.0,5,False,2,up,0.16666666666666666,23,0.09296079992782325,0.40767730004154146,0.5006380999693647,0.6701327000046149,False,near-080,40,8,4,5.0,2,up,1,0
280,1,True,1.5090279000578448,800.0,50.0,33.0,0,False,2,up,0.16666666666666666,27,0,0.46573769999668,0.46573769999668,0.9578982999082655,True,near-000,40,5,2,3.125,3,up,1,0
281,1,True,0.9410649000201374,800.0,50.0,33.0,5,False,2,up,0.16666666666666666,23,0.09047550009563565,0.44473020010627806,0.5352057002019137,0.46152770007029176,True,near-080,41,9,5,5.625,2,up,1,1
282,1,True,1.218811999890022,800.0,100.0,50.0,0,False,1,up,0.16666666666666666,19,0,0.3463018999900669,0.3463018999900669,0.5508870999328792,True,near-rnd2,41,6,3,3.75,3,up,1,0
283,3,True,1.3773152000503615,800.0,50.0,33.0,15,False,2,up,0.16666666666666666,11,0.2611685999436304,0.2445648000575602,0.5057334000011906,0.8176938000833616,False,near-240,41,1,0,0.625,2,up,1,0
284,3,True,0.8685077000409365,800.0,33.0,50.0,0,False,3,down,0.16666666666666666,45,0,0.753593000001274,0.753593000001274,0.3740247000241652,True,near-rnd3,41,7,4,4.375,2,down,1,0
285,4,True,1.2475376999936998,800.0,800.0,50.0,0,False,0,down,0.16666666666666666,10,0,0.2253650000784546,0.2253650000784546,0.5495594000676647,True,near-rndm,41,4,4,2.5,2,down,2,0
286,4,True,3.4201547999400645,800.0,50.0,33.0,10,False,2,up,0.16666666666666666,15,0.1902944000903517,0.3209254000103101,0.5112198001006618,0.991788599989377,True,near-160,41,14,8,8.75,2,up,1,1
287,2,True,1.6802786000771448,800.0,50.0,33.0,0,False,2,up,0.16666666666666666,27,0,0.4870008999714628,0.4870008999714628,0.6383074000477791,False,near-000,41,6,2,3.75,3,up,1,0
288,3,True,0.7497229999862611,800.0,33.0,50.0,0,False,3,down,0.16666666666666666,45,0,0.7660117000341415,0.7660117000341415,0.40219980000983924,False,near-rnd3,42,8,4,5.0,2,down,1,0
289,2,True,1.0721322998870164,800.0,50.0,33.0,5,False,2,up,0.16666666666666666,23,0.099028299911879,0.42127279995474964,0.5203010998666286,0.49218029994517565,False,near-080,42,10,5,6.25,2,up,1,1
290,1,True,0.9675484000472352,800.0,50.0,33.0,0,False,2,up,0.16666666666666666,27,0,0.47890029998961836,0.47890029998961836,0.6039971999125555,False,near-000,42,7,2,4.375,3,up,1,0
291,1,True,2.2222880999324843,800.0,100.0,50.0,0,False,1,up,0.16666666666666666,19,0,0.3417062000371516,0.3417062000371516,0.6619765000650659,False,near-rnd2,42,7,3,4.375,3,up,1,0
292,2,True,0.9404686999041587,800.0,50.0,33.0,10,False,2,up,0.16666666666666666,15,0.1829549000831321,0.29216769989579916,0.47512259997893125,0.5534918999765068,True,near-160,42,15,9,9.375,2,up,1,1
293,2,True,1.5864538000896573,800.0,50.0,33.0,15,False,2,up,0.16666666666666666,11,0.2540255000349134,0.22974039998371154,0.48376590001862496,0.5319768000626937,True,near-240,42,2,1,1.25,3,up,1,0
294,3,True,1.5999570999993011,800.0,800.0,50.0,0,False,0,down,0.16666666666666666,10,0,0.19699690002016723,0.19699690002016723,0.6484025999670848,True,near-rndm,42,5,5,3.125,2,down,2,0
295,1,True,0.8315884999465197,800.0,50.0,33.0,5,False,2,up,0.16666666666666666,23,0.09151269996073097,0.4153225999325514,0.5068352998932824,0.6111805000109598,False,near-080,43,11,5,6.875,2,up,1,1
296,3,True,2.5299440000671893,800.0,800.0,50.0,0,False,0,down,0.16666666666666666,10,0,0.2061292000580579,0.2061292000580579,0.6946003999328241,True,near-rndm,43,6,6,3.75,2,down,2,0
297,1,True,1.9864855000050738,800.0,50.0,33.0,15,False,2,up,0.16666666666666666,11,0.2522498000180349,0.21094390004873276,0.46319370006676763,0.9813804000150412,True,near-240,43,3,2,1.875,3,up,1,0
298,4,True,1.2871041999896988,800.0,100.0,50.0,0,False,1,up,0.16666666666666666,19,0,0.3686815000837669,0.3686815000837669,0.7529358000028878,False,near-rnd2,43,8,3,5.0,3,up,1,0
299,2,True,1.1284636000636965,800.0,50.0,33.0,10,False,2,up,0.16666666666666666,15,0.1738181000109762,0.29029179993085563,0.4641098999418318,0.5558101000497118,False,near-160,43,16,9,10.0,2,up,1,1
300,3,True,0.7736110000405461,800.0,50.0,33.0,0,False,2,up,0.16666666666666666,27,0,0.48024429997894913,0.48024429997894913,0.6004857999505475,True,near-000,43,8,3,5.0,3,up,1,0
301,1,True,1.1619519999949262,800.0,33.0,50.0,0,False,3,down,0.16666666666666666,45,0,0.7410975000821054,0.7410975000821054,0.8932337999576703,True,near-rnd3,43,9,5,5.625,2,down,1,1
302,4,True,0.7442927999654785,800.0,800.0,50.0,0,False,0,down,0.16666666666666666,6,0,0.14994140004273504,0.14994140004273504,0.6026332000037655,True,near-rndm,44,1,1,0.625,2,down,4,0
303,1,True,1.085855600074865,800.0,50.0,33.0,5,False,2,up,0.16666666666666666,23,0.0902934999903664,0.40663939993828535,0.49693289992865175,0.7635329000186175,True,near-080,44,12,6,7.5,2,up,1,1
304,2,True,1.1882249000482261,800.0,33.0,50.0,0,False,3,down,0.16666666666666666,45,0,0.7519752000225708,0.7519752000225708,0.3503694999963045,True,near-rnd3,44,10,6,6.25,2,down,1,1
305,1,True,2.625798500026576,800.0,50.0,33.0,15,False,2,up,0.16666666666666666,11,0.24968020000960678,0.22191229998134077,0.47159249999094754,0.7628378999652341,False,near-240,44,4,2,2.5,3,up,1,0
306,1,True,0.8839221000671387,800.0,50.0,33.0,15,False,2,up,0.16666666666666666,11,0.25226560002192855,0.21916930004954338,0.47143490007147193,0.6015824000351131,True,near-240,45,5,3,3.125,3,up,1,0
307,1,True,1.1111494000069797,800.0,50.0,33.0,5,False,2,up,0.16666666666666666,23,0.08723519998602569,0.4100267000030726,0.4972618999890983,0.6816407999722287,False,near-080,45,13,6,8.125,2,up,1,1
308,2,True,0.7774875999893993,800.0,33.0,50.0,0,False,3,down,0.16666666666666666,45,0,0.7586391000077128,0.7586391000077128,0.8620158000849187,True,near-rnd3,45,11,7,6.875,2,down,1,1
309,1,True,1.0387042999500409,800.0,800.0,50.0,0,False,0,down,0.16666666666666666,6,0,0.12357399996835738,0.12357399996835738,1.1046691000228748,False,near-rndm,45,2,1,1.25,1,down,4,0
310,2,True,0.8617310000117868,800.0,33.0,50.0,0,False,3,down,0.16666666666666666,45,0,0.7521966999629512,0.7521966999629512,0.42362819996196777,True,near-rnd3,46,12,8,7.5,2,down,1,1
311,1,True,0.9967582999961451,800.0,50.0,33.0,5,False,2,up,0.16666666666666666,24,0.08713180001359433,0.43012100004125386,0.5172528000548482,0.7222671998897567,True,near-080,46,1,1,0.625,2,up,1,0
312,2,True,0.7860941999824718,800.0,50.0,33.0,15,False,2,up,0.16666666666666666,11,0.2569813000736758,0.2222384000197053,0.4792197000933811,0.5507095999782905,True,near-240,46,6,4,3.75,3,up,1,0
313,3,True,1.5869161000009626,800.0,800.0,50.0,0,False,0,down,0.16666666666666666,6,0,0.13775669992901385,0.13775669992901385,0.8570180999813601,False,near-rndm,46,3,1,1.875,1,down,4,0
314,4,True,1.0644039999460801,800.0,50.0,33.0,5,False,2,up,0.16666666666666666,24,0.11415999999735504,0.44546019996050745,0.5596201999578625,0.616387200076133,True,near-080,47,2,2,1.25,3,up,1,0
315,4,True,0.9580627001123503,800.0,800.0,50.0,0,False,0,down,0.16666666666666666,6,0,0.14182240003719926,0.14182240003719926,0.835843599983491,False,near-rndm,47,4,1,2.5,1,down,4,0
316,2,True,1.1355052000144497,800.0,33.0,50.0,0,False,3,down,0.16666666666666666,45,0,0.7543756000231951,0.7543756000231951,0.5460875000571832,True,near-rnd3,47,13,9,8.125,2,down,1,1
317,2,True,0.8511275000637397,800.0,50.0,33.0,15,False,2,up,0.16666666666666666,11,0.2539241999620572,0.23049460002221167,0.48441879998426884,0.8675990999909118,True,near-240,47,7,5,4.375,3,up,1,0
318,1,True,1.3033003999153152,800.0,50.0,33.0,5,False,2,up,0.16666666666666666,24,0.09446280007250607,0.43089910002890974,0.5253619001014158,0.5531279999995604,True,near-080,48,3,3,1.875,3,up,1,0
319,2,True,1.34714129997883,800.0,50.0,33.0,15,False,2,up,0.16666666666666666,11,0.25938009994570166,0.2250287999631837,0.48440889990888536,0.46093639999162406,True,near-240,48,8,6,5.0,3,up,1,0
320,1,True,1.1939877999247983,800.0,33.0,50.0,0,False,3,down,0.16666666666666666,45,0,0.8091087000211701,0.8091087000211701,0.4473108999663964,False,near-rnd3,48,14,9,8.75,2,down,1,1
321,2,True,1.1642359000397846,800.0,800.0,50.0,0,False,0,up,0.16666666666666666,8,0,0.16629760002251714,0.16629760002251714,0.9041278000222519,True,near-rndm,48,1,1,0.625,1,up,2,0
322,1,True,1.4818904000567272,800.0,33.0,50.0,0,False,3,down,0.16666666666666666,45,0,0.7437490000156686,0.7437490000156686,0.8910406000213698,False,near-rnd3,49,15,9,9.375,2,down,1,1
323,3,True,0.8897549000103027,800.0,800.0,50.0,0,False,0,up,0.16666666666666666,8,0,0.1735314999241382,0.1735314999241382,0.7593777000438422,False,near-rndm,49,2,1,1.25,2,up,2,0
324,3,True,0.9769954000366852,800.0,50.0,33.0,5,False,2,up,0.16666666666666666,24,0.10511269990820438,0.456218299921602,0.5613309998298064,0.47764419997110963,True,near-080,49,4,4,2.5,3,up,1,0
325,2,True,2.203264999901876,800.0,800.0,50.0,0,False,0,up,0.16666666666666666,8,0,0.17379150004126132,0.17379150004126132,0.8767413999885321,False,near-rndm,50,3,1,1.875,2,up,2,0
326,3,True,1.9127162999939173,800.0,33.0,50.0,0,False,3,down,0.16666666666666666,45,0,0.7679802000056952,0.7679802000056952,0.594134800019674,True,near-rnd3,50,16,10,10.0,2,down,1,1
327,2,True,0.9879969999892637,800.0,50.0,33.0,5,False,2,up,0.16666666666666666,24,0.0954087000573054,0.44355990004260093,0.5389686000999063,0.6005168000701815,False,near-080,50,5,4,3.125,3,up,1,0
328,2,True,1.7063537000212818,800.0,800.0,50.0,0,False,0,up,0.16666666666666666,8,0,0.16252840007655323,0.16252840007655323,0.9154465000610799,True,near-rndm,51,4,2,2.5,2,up,2,0
329,2,True,1.0339912000345066,800.0,50.0,33.0,5,False,2,up,0.16666666666666666,24,0.09421250002924353,0.43714599998202175,0.5313585000112653,0.5922261000378057,False,near-080,51,6,4,3.75,3,up,1,0
330,3,True,0.9178290999261662,800.0,800.0,50.0,0,False,0,up,0.16666666666666666,8,0,0.18017910001799464,0.18017910001799464,0.8630586999934167,False,near-rndm,52,5,2,3.125,2,up,2,0
331,1,True,5.131853600032628,800.0,50.0,33.0,5,False,2,up,0.16666666666666666,24,0.09044930001255125,0.4234798999968916,0.5139292000094429,0.5123443999327719,True,near-080,52,7,5,4.375,3,up,1,0
332,4,True,1.2334467000328004,800.0,800.0,50.0,0,False,0,up,0.16666666666666666,8,0,0.19334959995467216,0.19334959995467216,0.9088700000429526,False,near-rndm,53,6,2,3.75,2,up,2,0
333,2,True,0.7378825000487268,800.0,50.0,33.0,5,False,2,up,0.16666666666666666,24,0.09373189997859299,0.4415761000709608,0.5353080000495538,0.8528559000696987,False,near-080,53,8,5,5.0,3,up,1,0
