trial,primeIter,primeCorrect,primeTime,primeDepth,stimDepth,extraDepth,driveFrames,nearToFar,diopters,direction,size,intensity,extraLatency,mainLatency,totalLatency,responseTime,correct,caseLabel,caseTrial,trialsAtStep,stepCorrect,expected,w,direction,stepsize,stepChange
1,2,True,1.1873444999800995,800.0,100.0,50.0,0,False,1,start,0.16666666666666666,60,0,1.00356300000567,1.00356300000567,0.2190780999371782,True,near-rnd2,1,1,1,0.625,0.5,start,16,0
2,1,True,1.2579937999835238,800.0,50.0,33.0,10,False,2,start,0.16666666666666666,60,0.17184690001886338,1.0096168000018224,1.1814637000206858,0.23243939992971718,True,near-160,1,1,1,0.625,0.5,start,16,0
3,2,True,1.4376135000493377,800.0,33.0,50.0,0,False,3,start,0.16666666666666666,60,0,0.9988522999919951,0.9988522999919951,0.4410723999608308,True,near-rnd3,1,1,1,0.625,0.5,start,16,0
4,1,True,1.801777100074105,800.0,800.0,50.0,0,False,0,start,0.16666666666666666,60,0,0.9865490000229329,0.9865490000229329,0.2973304999759421,True,near-rndm,1,1,1,0.625,0.5,start,16,0
5,2,True,1.3604724999750033,800.0,50.0,33.0,15,False,2,start,0.16666666666666666,60,0.2510746999178082,1.0103643999900669,1.261439099907875,0.2359766000881791,True,near-240,1,1,1,0.625,0.5,start,16,0
6,2,True,2.5112379000056535,800.0,50.0,33.0,0,False,2,start,0.16666666666666666,60,0,1.0101268999278545,1.0101268999278545,0.33089169999584556,True,near-000,1,1,1,0.625,0.5,start,16,0
7,1,True,1.484072000021115,800.0,50.0,33.0,5,False,2,start,0.16666666666666666,60,0.0886434999993071,1.0016755000688136,1.0903190000681207,0.31086879991926253,True,near-080,1,1,1,0.625,0.5,start,16,0
8,1,True,1.7967085000127554,800.0,50.0,33.0,0,False,2,start,0.16666666666666666,44,0,0.739019799977541,0.739019799977541,0.46123179991263896,True,near-000,2,1,1,0.625,1.0,start,16,0
9,4,True,1.0397103000432253,800.0,100.0,50.0,0,False,1,start,0.16666666666666666,44,0,0.7966140999924392,0.7966140999924392,0.422893000068143,True,near-rnd2,2,1,1,0.625,1.0,start,16,0
10,1,True,1.2976887999102473,800.0,800.0,50.0,0,False,0,start,0.16666666666666666,44,0,0.7347109999973327,0.7347109999973327,0.5027541999006644,True,near-rndm,2,1,1,0.625,1.0,start,16,0
11,2,True,1.1240083000157028,800.0,50.0,33.0,5,False,2,start,0.16666666666666666,44,0.0974132000701502,0.764234000002034,0.8616472000721842,0.39415259996894747,True,near-080,2,1,1,0.625,1.0,start,16,0
12,1,True,1.5483178000431508,800.0,50.0,33.0,10,False,2,start,0.16666666666666666,44,0.17116620007436723,0.7491434999974445,0.9203097000718117,0.3944484000094235,True,near-160,2,1,1,0.625,1.0,start,16,0
13,3,True,1.3765668999403715,800.0,50.0,33.0,15,False,2,start,0.16666666666666666,44,0.2707038000226021,0.760790100088343,1.031493900110945,0.38586310006212443,True,near-240,2,1,1,0.625,1.0,start,16,0
14,2,True,1.4106626000721008,800.0,33.0,50.0,0,False,3,start,0.16666666666666666,44,0,0.7324817999033257,0.7324817999033257,0.8156996000325307,False,near-rnd3,2,1,0,0.625,1.0,start,16,0
15,2,True,0.9238544000545517,800.0,800.0,50.0,0,False,0,start,0.16666666666666666,28,0,0.4882874999893829,0.4882874999893829,0.41316769993864,True,near-rndm,3,1,1,0.625,1.0,start,16,0
16,2,True,1.2355978999985382,800.0,33.0,50.0,0,False,3,start,0.16666666666666666,44,0,0.7358741000061855,0.7358741000061855,0.6492227999260649,True,near-rnd3,3,2,1,1.25,1.0,start,16,0
17,4,True,1.8310191000346094,800.0,50.0,33.0,15,False,2,start,0.16666666666666666,28,0.2637538000708446,0.5133462999947369,0.7771001000655815,0.6143266999861225,True,near-240,3,1,1,0.625,1.0,start,16,0
18,1,True,1.4285436000209302,800.0,100.0,50.0,0,False,1,start,0.16666666666666666,28,0,0.4847253999905661,0.4847253999905661,0.8981918001081795,True,near-rnd2,3,1,1,0.625,1.0,start,16,0
19,4,True,0.8017360999947414,800.0,50.0,33.0,0,False,2,start,0.16666666666666666,28,0,0.5235013000201434,0.5235013000201434,0.8199445999925956,False,near-000,3,1,0,0.625,1.0,start,16,0
20,1,True,1.6924136000452563,800.0,50.0,33.0,10,False,2,start,0.16666666666666666,28,0.1680814001010731,0.4985103999497369,0.66659180005081,0.5030700999777764,True,near-160,3,1,1,0.625,1.0,start,16,0
21,3,True,1.0325040000025183,800.0,50.0,33.0,5,False,2,start,0.16666666666666666,28,0.09844329999759793,0.5116122000617906,0.6100555000593886,0.6229995000176132,True,near-080,3,1,1,0.625,1.0,start,16,0
22,4,True,1.3284101000754163,800.0,50.0,33.0,0,False,2,up,0.16666666666666666,36,0,0.6466964000137523,0.6466964000137523,1.0650210999883711,True,near-000,4,1,1,0.625,0.5,up,8,0
23,2,True,2.859377900022082,800.0,800.0,50.0,0,False,0,start,0.16666666666666666,12,0,0.2355505001032725,0.2355505001032725,0.9975734000327066,True,near-rndm,4,1,1,0.625,0.5,start,16,0
24,3,True,1.1659297998994589,800.0,33.0,50.0,0,False,3,start,0.16666666666666666,28,0,0.49507410009391606,0.49507410009391606,1.2220591000514105,False,near-rnd3,4,1,0,0.625,0.5,start,16,0
25,1,True,1.643503800034523,800.0,50.0,33.0,5,False,2,start,0.16666666666666666,12,0.08858119999058545,0.23001629998907447,0.3185974999796599,1.1405839999206364,False,near-080,4,1,0,0.625,0.5,start,16,0
26,2,True,1.3471583999926224,800.0,50.0,33.0,15,False,2,start,0.16666666666666666,12,0.25380039995070547,0.23341660003643483,0.4872169999871403,1.0507917000213638,True,near-240,4,1,1,0.625,0.5,start,16,0
27,4,True,1.3843909000279382,800.0,100.0,50.0,0,False,1,start,0.16666666666666666,12,0,0.25160720001440495,0.25160720001440495,1.0571089000441134,False,near-rnd2,4,1,0,0.625,0.5,start,16,0
28,2,True,1.6206343999365345,800.0,50.0,33.0,10,False,2,start,0.16666666666666666,12,0.17839949997141957,0.2552386000752449,0.4336381000466645,1.0935633999761194,False,near-160,4,1,0,0.625,0.5,start,16,0
29,2,True,1.3534257999854162,800.0,50.0,33.0,15,False,2,start,0.16666666666666666,0,0.259004499996081,0.04756829992402345,0.30657279992010444,1.6781983999535441,False,near-240,5,1,0,0.625,0.5,start,16,0
30,3,True,1.35945550003089,800.0,100.0,50.0,0,False,1,up,0.16666666666666666,20,0,0.39432900003157556,0.39432900003157556,0.9318467000266537,False,near-rnd2,5,1,0,0.625,0.5,up,8,0
31,3,True,1.4801111000124365,800.0,50.0,33.0,5,False,2,up,0.16666666666666666,20,0.10013989999424666,0.3920859000645578,0.49222580005880445,1.1799319999990985,False,near-080,5,1,0,0.625,0.5,up,8,0
32,1,True,1.3893582000164315,800.0,800.0,50.0,0,False,0,start,0.16666666666666666,0,0,0.026073000044561923,0.026073000044561923,0.9302155000623316,False,near-rndm,5,1,0,0.625,0.5,start,16,0
33,1,True,1.122723100008443,800.0,33.0,50.0,0,False,3,up,0.16666666666666666,36,0,0.5990263000130653,0.5990263000130653,0.7261509000090882,False,near-rnd3,5,1,0,0.625,0.5,up,8,0
34,1,True,1.7339414999587461,800.0,50.0,33.0,10,False,2,up,0.16666666666666666,20,0.17725680000148714,0.35392509994562715,0.5311818999471143,0.7813156000338495,True,near-160,5,1,1,0.625,0.5,up,8,0
35,4,True,1.8382247000699863,800.0,50.0,33.0,0,False,2,up,0.16666666666666666,36,0,0.6365529000759125,0.6365529000759125,0.6308750999160111,True,near-000,5,2,2,1.25,1,up,8,0
36,1,True,2.882901000091806,800.0,33.0,50.0,0,False,3,up,0.16666666666666666,36,0,0.5955934000667185,0.5955934000667185,0.7857289999956265,False,near-rnd3,6,2,0,1.25,1,up,8,0
37,2,True,0.8131634000455961,800.0,50.0,33.0,0,False,2,up,0.16666666666666666,36,0,0.6179594000568613,0.6179594000568613,0.5201968000037596,False,near-000,6,3,2,1.875,1,up,8,0
38,1,True,1.6804417000385001,800.0,50.0,33.0,5,False,2,up,0.16666666666666666,20,0.09459340001922101,0.36843040003441274,0.46302380005363375,0.6339051999384537,True,near-080,6,2,1,1.25,1,up,8,0
39,4,True,1.6841344001004472,800.0,100.0,50.0,0,False,1,up,0.16666666666666666,20,0,0.3813308000098914,0.3813308000098914,1.07232669997029,False,near-rnd2,6,2,0,1.25,1,up,8,0
40,2,True,1.2799550999188796,800.0,50.0,33.0,15,False,2,up,0.16666666666666666,8,0.25189650000538677,0.17464149999432266,0.4265379999997094,0.7301973999710754,False,near-240,6,1,0,0.625,0.5,up,8,0
41,2,True,0.7949178999988362,800.0,50.0,33.0,10,False,2,up,0.16666666666666666,20,0.1733399999793619,0.3728318000212312,0.5461718000005931,0.5294671000447124,True,near-160,6,2,2,1.25,1,up,8,0
42,3,True,1.0062154000625014,800.0,800.0,50.0,0,False,0,up,0.16666666666666666,8,0,0.17787410004530102,0.17787410004530102,1.0286709999199957,False,near-rndm,6,1,0,0.625,0.5,up,8,0
43,3,True,1.3558252999791875,800.0,100.0,50.0,0,False,1,up,0.16666666666666666,28,0,0.5123718000249937,0.5123718000249937,0.7565467999083921,True,near-rnd2,7,1,1,0.625,1,up,8,0
44,2,True,1.6205789999803528,800.0,50.0,33.0,0,False,2,up,0.16666666666666666,36,0,0.6226103999651968,0.6226103999651968,0.5675934999017045,False,near-000,7,4,2,2.5,1,up,8,0
45,1,True,1.4530756999738514,800.0,50.0,33.0,15,False,2,up,0.16666666666666666,8,0.25184649997390807,0.16958870005328208,0.42143520002719015,0.6978795999893919,False,near-240,7,2,0,1.25,1,up,8,0
46,2,True,2.004457600065507,800.0,800.0,50.0,0,False,0,up,0.16666666666666666,8,0,0.17135760001838207,0.17135760001838207,0.9216753999935463,False,near-rndm,7,2,0,1.25,1,up,8,0
47,2,True,1.7963590000290424,800.0,50.0,33.0,10,False,2,up,0.16666666666666666,20,0.17547959997318685,0.3685338000068441,0.544013399980031,0.630685199983418,True,near-160,7,3,3,1.875,1,up,8,0
48,1,True,1.889401699998416,800.0,50.0,33.0,5,False,2,up,0.16666666666666666,20,0.08726930001284927,0.36037479992955923,0.4476440999424085,0.5656735999509692,False,near-080,7,3,1,1.875,1,up,8,0
49,4,True,1.0927137000253424,800.0,33.0,50.0,0,False,3,up,0.16666666666666666,44,0,0.7492621000856161,0.7492621000856161,0.5354432000312954,True,near-rnd3,7,1,1,0.625,1,up,8,0
50,1,True,1.7477339999750257,800.0,100.0,50.0,0,False,1,up,0.16666666666666666,28,0,0.48395000002346933,0.48395000002346933,4.744011199916713,False,near-rnd2,8,2,1,1.25,1,up,8,0
51,2,True,1.324532700004056,800.0,50.0,33.0,5,False,2,up,0.16666666666666666,20,0.09383429994340986,0.37102890003006905,0.4648631999734789,0.8171601999783888,True,near-080,8,4,2,2.5,1,up,8,0
52,2,True,1.9431189999449998,800.0,800.0,50.0,0,False,0,up,0.16666666666666666,16,0,0.2974509000778198,0.2974509000778198,0.9856071000685915,False,near-rndm,8,1,0,0.625,1,up,8,0
53,2,True,1.334821500000544,800.0,33.0,50.0,0,False,3,up,0.16666666666666666,44,0,0.7321104999864474,0.7321104999864474,1.1297573000192642,True,near-rnd3,8,2,2,1.25,1,up,8,0
54,2,True,1.7320308999624103,800.0,50.0,33.0,0,False,2,up,0.16666666666666666,36,0,0.6307184000033885,0.6307184000033885,0.5693252000492066,False,near-000,8,5,2,3.125,1,up,8,0
55,1,True,1.9812217999715358,800.0,50.0,33.0,10,False,2,down,0.16666666666666666,16,0.1703057000413537,0.30080219998490065,0.47110790002625436,0.7204590000910684,True,near-160,8,1,1,0.625,1,down,4,0
56,2,True,1.0256794999586418,800.0,50.0,33.0,15,False,2,up,0.16666666666666666,16,0.256929500028491,0.31471009994857013,0.5716395999770612,0.6546630000229925,False,near-240,8,1,0,0.625,1,up,8,0
57,1,True,1.632566099986434,800.0,800.0,50.0,0,False,0,up,0.16666666666666666,16,0,0.2900544999865815,0.2900544999865815,0.7153168000513688,False,near-rndm,9,2,0,1.25,1,up,8,0
58,1,True,1.4593682999256998,800.0,50.0,33.0,0,False,2,up,0.16666666666666666,44,0,0.7399604999227449,0.7399604999227449,0.5548821999691427,True,near-000,9,1,1,0.625,1,up,8,0
59,1,True,4.966664799954742,800.0,50.0,33.0,5,False,2,up,0.16666666666666666,20,0.09634220006410033,0.36919839994516224,0.46554060000926256,0.591556099941954,False,near-080,9,5,2,3.125,1,up,8,0
60,1,True,2.1523910999530926,800.0,33.0,50.0,0,False,3,up,0.16666666666666666,44,0,0.7261169999837875,0.7261169999837875,1.1671010999707505,False,near-rnd3,9,3,2,1.875,1,up,8,0
61,2,True,1.1348077000584453,800.0,100.0,50.0,0,False,1,up,0.16666666666666666,28,0,0.4950069000478834,0.4950069000478834,0.6651245999382809,True,near-rnd2,9,3,2,1.875,1,up,8,0
62,3,True,3.7438619000604376,800.0,50.0,33.0,15,False,2,up,0.16666666666666666,16,0.2660908999387175,0.3270928000565618,0.5931836999952793,0.8125477000139654,True,near-240,9,2,1,1.25,1,up,8,0
63,1,True,2.0637640999630094,800.0,50.0,33.0,10,False,2,down,0.16666666666666666,16,0.1709119000006467,0.3004139999393374,0.4713258999399841,1.1028137999819592,False,near-160,9,2,1,1.25,1,down,4,0
64,3,True,1.0206673999782652,800.0,50.0,33.0,0,False,2,up,0.16666666666666666,44,0,0.7750504999421537,0.7750504999421537,0.4281926000257954,True,near-000,10,2,2,1.25,1,up,8,0
65,2,True,1.454648399958387,800.0,33.0,50.0,0,False,3,up,0.16666666666666666,44,0,0.7336121000116691,0.7336121000116691,0.8013312999391928,False,near-rnd3,10,4,2,2.5,1,up,8,0
66,4,True,0.8994798000203446,800.0,100.0,50.0,0,False,1,up,0.16666666666666666,28,0,0.5241994999814779,0.5241994999814779,0.4928648000350222,True,near-rnd2,10,4,3,2.5,1,up,8,0
67,1,True,1.3418005000567064,800.0,50.0,33.0,15,False,2,up,0.16666666666666666,16,0.34831080003641546,0.29823439999017864,0.6465452000265941,0.8643251999747008,True,near-240,10,3,2,1.875,1,up,8,0
68,4,True,1.4521228999365121,800.0,50.0,33.0,10,False,2,down,0.16666666666666666,16,0.19620970007963479,0.330961300060153,0.5271710001397878,1.0661923000589013,False,near-160,10,3,1,1.875,1,down,4,0
69,2,True,4.672654499998316,800.0,800.0,50.0,0,False,0,up,0.16666666666666666,24,0,0.42240080004557967,0.42240080004557967,2.031936899991706,True,near-rndm,10,1,1,0.625,1,up,8,0
70,2,True,1.2315617999993265,800.0,50.0,33.0,5,False,2,up,0.16666666666666666,28,0.09340369992423803,0.5103771999711171,0.6037808998953551,1.198096999898553,False,near-080,10,1,0,0.625,1,up,8,0
71,4,True,0.9472067999886349,800.0,50.0,33.0,5,False,2,up,0.16666666666666666,28,0.10004190006293356,0.5172326000174507,0.6172745000803843,0.8426698999246582,False,near-080,11,2,0,1.25,1,up,8,0
72,2,True,5.5814998999703676,800.0,800.0,50.0,0,False,0,up,0.16666666666666666,24,0,0.4225988000398502,0.4225988000398502,0.537014800007455,True,near-rndm,11,2,2,1.25,1,up,8,0
73,1,True,1.6997440999839455,800.0,50.0,33.0,10,False,2,down,0.16666666666666666,16,0.16737350006587803,0.2971304999664426,0.4645040000323206,1.22612649993971,False,near-160,11,4,1,2.5,1,down,4,0
74,1,True,3.911446399986744,800.0,100.0,50.0,0,False,1,up,0.16666666666666666,28,0,0.49489669990725815,0.49489669990725815,0.464911499992013,True,near-rnd2,11,5,4,3.125,1,up,8,0
75,1,True,1.183530200039968,800.0,33.0,50.0,0,False,3,up,0.16666666666666666,44,0,0.725947399972938,0.725947399972938,0.7113841000245884,True,near-rnd3,11,5,3,3.125,1,up,8,0
76,2,True,1.0106610000366345,800.0,50.0,33.0,0,False,2,up,0.16666666666666666,44,0,0.7568295999662951,0.7568295999662951,0.33922029996756464,True,near-000,11,3,3,1.875,1,up,8,0
77,1,True,2.393621900002472,800.0,50.0,33.0,15,False,2,up,0.16666666666666666,16,0.25108319998253137,0.2981018000282347,0.5491850000107661,0.7087614999618381,True,near-240,11,4,3,2.5,1,up,8,0
78,2,True,1.163557599997148,800.0,50.0,33.0,15,False,2,up,0.16666666666666666,16,0.2586764000589028,0.31309260008856654,0.5717690001474693,0.41496289998758584,True,near-240,12,5,4,3.125,1,up,8,0
79,3,True,1.625021900050342,800.0,50.0,33.0,10,False,2,up,0.16666666666666666,18,0.18389640003442764,0.3902025999268517,0.5740989999612793,0.7000597999431193,False,near-160,12,1,0,0.625,1,up,2,0
80,1,True,2.162254700087942,800.0,50.0,33.0,0,False,2,down,0.16666666666666666,40,0,0.6792681000661105,0.6792681000661105,0.3464885000139475,True,near-000,12,1,1,0.625,1,down,4,0
81,1,True,3.247605999931693,800.0,800.0,50.0,0,False,0,up,0.16666666666666666,24,0,0.4125405999366194,0.4125405999366194,0.5252985999686643,True,near-rndm,12,3,3,1.875,1,up,8,0
82,2,True,1.7010073000565171,800.0,33.0,50.0,0,False,3,up,0.16666666666666666,44,0,0.737353099975735,0.737353099975735,0.9723690999671817,False,near-rnd3,12,6,3,3.75,1,up,8,0
83,1,True,3.280955200083554,800.0,50.0,33.0,5,False,2,up,0.16666666666666666,36,0.09489579999353737,0.6281215000199154,0.7230173000134528,0.35991090000607073,True,near-080,12,1,1,0.625,1,up,8,0
84,3,True,1.6186698999954388,800.0,100.0,50.0,0,False,1,up,0.16666666666666666,28,0,0.5110879000276327,0.5110879000276327,0.749114100006409,True,near-rnd2,12,6,5,3.75,1,up,8,0
85,1,True,6.0840991999721155,800.0,50.0,33.0,5,False,2,up,0.16666666666666666,36,0.09394249995239079,0.6157728000544012,0.709715300006792,0.39251860009972006,True,near-080,13,2,2,1.25,1,up,8,0
86,2,True,1.1025147999171168,800.0,33.0,50.0,0,False,3,up,0.16666666666666666,44,0,0.7355544000165537,0.7355544000165537,0.5265332999406382,True,near-rnd3,13,7,4,4.375,1,up,8,0
87,1,True,1.7418425999348983,800.0,100.0,50.0,0,False,1,down,0.16666666666666666,24,0,0.42426030000206083,0.42426030000206083,0.6530417000176385,True,near-rnd2,13,1,1,0.625,1,down,4,0
88,2,True,1.0162715999176726,800.0,800.0,50.0,0,False,0,down,0.16666666666666666,20,0,0.36787650000769645,0.36787650000769645,0.6713683999842033,False,near-rndm,13,1,0,0.625,1,down,4,0
89,4,True,0.9398752000415698,800.0,50.0,33.0,0,False,2,down,0.16666666666666666,40,0,0.7089657000033185,0.7089657000033185,1.1571577999275178,False,near-000,13,2,1,1.25,1,down,4,0
90,1,True,1.3749900000402704,800.0,50.0,33.0,10,False,2,up,0.16666666666666666,18,0.16822430002503097,0.3346558000193909,0.5028801000444219,0.5067171000409871,True,near-160,13,2,1,1.25,2,up,2,0
91,4,True,0.9887021000031382,800.0,50.0,33.0,15,False,2,up,0.16666666666666666,16,0.28012210002634674,0.3336890999926254,0.6138112000189722,0.6184284000191838,False,near-240,13,6,4,3.75,1,up,8,0
92,2,True,3.1031562999123707,800.0,33.0,50.0,0,False,3,up,0.16666666666666666,44,0,0.7403757000574842,0.7403757000574842,0.7921844000229612,False,near-rnd3,14,8,4,5.0,1,up,8,0
93,1,True,2.1127813999773934,800.0,50.0,33.0,15,False,2,up,0.16666666666666666,16,0.25179869995918125,0.30937169992830604,0.5611703998874873,0.4508958999067545,True,near-240,14,7,5,4.375,1,up,8,0
94,2,True,1.521319399937056,800.0,50.0,33.0,5,False,2,up,0.16666666666666666,36,0.1007258000317961,0.635185599909164,0.7359113999409601,0.31992839998565614,True,near-080,14,3,3,1.875,1,up,8,0
95,1,True,2.3770851999288425,800.0,50.0,33.0,0,False,2,down,0.16666666666666666,40,0,0.6828789999708533,0.6828789999708533,0.4192954999161884,False,near-000,14,3,1,1.875,1,down,4,0
96,1,True,1.4818723000353202,800.0,100.0,50.0,0,False,1,down,0.16666666666666666,24,0,0.4294663000619039,0.4294663000619039,0.5242869999492541,True,near-rnd2,14,2,2,1.25,1,down,4,0
97,2,True,1.8022251999936998,800.0,800.0,50.0,0,False,0,down,0.16666666666666666,20,0,0.361372199957259,0.361372199957259,0.5620482999365777,True,near-rndm,14,2,1,1.25,1,down,4,0
98,1,True,7.593215300003067,800.0,50.0,33.0,10,False,2,up,0.16666666666666666,18,0.1728232998866588,0.336436599958688,0.5092598998453468,0.8156886999495327,False,near-160,14,3,1,1.875,2,up,2,0
99,2,True,1.8539463999914005,800.0,33.0,50.0,0,False,3,up,0.16666666666666666,44,0,0.7368843000149354,0.7368843000149354,0.4197493999963626,True,near-rnd3,15,9,5,5.625,1,up,8,1
100,2,True,1.5165782999247313,800.0,100.0,50.0,0,False,1,down,0.16666666666666666,24,0,0.4445631999988109,0.4445631999988109,0.9147790999850258,False,near-rnd2,15,3,2,1.875,1,down,4,0
101,2,True,1.4122994999634102,800.0,50.0,33.0,10,False,2,up,0.16666666666666666,18,0.17824029992334545,0.3463632999919355,0.5246035999152809,0.6580925999442115,True,near-160,15,4,2,2.5,2,up,2,0
102,2,True,1.7525044999783859,800.0,50.0,33.0,5,False,2,down,0.16666666666666666,32,0.09952839999459684,0.5593010999727994,0.6588294999673963,0.2913092999951914,True,near-080,15,1,1,0.625,1,down,4,0
103,1,True,1.5097049999749288,800.0,800.0,50.0,0,False,0,down,0.16666666666666666,20,0,0.3477835999801755,0.3477835999801755,0.4838765999302268,True,near-rndm,15,3,2,1.875,1,down,4,0
104,1,True,1.4266276999842376,800.0,50.0,33.0,0,False,2,down,0.16666666666666666,40,0,0.6725112000713125,0.6725112000713125,0.6299209999851882,True,near-000,15,4,2,2.5,1,down,4,0
105,2,True,1.6324958000332117,800.0,50.0,33.0,15,False,2,up,0.16666666666666666,16,0.25271749997045845,0.3192218999611214,0.5719393999315798,0.6423495999770239,True,near-240,15,8,6,5.0,1,up,8,0
106,3,True,1.593778399983421,800.0,50.0,33.0,10,False,2,up,0.16666666666666666,18,0.1742126999888569,0.349746200023219,0.5239589000120759,0.7550645000301301,False,near-160,16,5,2,3.125,2,up,2,0
107,1,True,3.2814343000063673,800.0,50.0,33.0,0,False,2,down,0.16666666666666666,40,0,0.6809269998921081,0.6809269998921081,0.42283920000772923,False,near-000,16,5,2,3.125,1,down,4,0
108,1,True,1.7686187999788672,800.0,100.0,50.0,0,False,1,down,0.16666666666666666,24,0,0.42759990005288273,0.42759990005288273,0.5223180000903085,True,near-rnd2,16,4,3,2.5,1,down,4,0
109,2,True,5.397143100039102,800.0,50.0,33.0,15,False,2,up,0.16666666666666666,16,0.36634039995260537,0.312603099970147,0.6789434999227524,1.2903122999705374,True,near-240,16,9,7,5.625,1,up,8,1
110,3,True,1.002759699942544,800.0,800.0,50.0,0,False,0,down,0.16666666666666666,20,0,0.36840800009667873,0.36840800009667873,0.45789820002391934,True,near-rndm,16,4,3,2.5,1,down,4,0
111,2,True,1.0373437999514863,800.0,33.0,50.0,0,False,3,up,0.16666666666666666,44,0,0.741682399995625,0.741682399995625,0.8281323999399319,False,near-rnd3,16,10,5,6.25,1,up,8,1
112,4,True,2.3960958999814466,800.0,50.0,33.0,5,False,2,down,0.16666666666666666,32,0.10351620009168983,0.5728290999541059,0.6763453000457957,0.490671299980022,True,near-080,16,2,2,1.25,1,down,4,0
113,3,True,1.865775200072676,800.0,100.0,50.0,0,False,1,down,0.16666666666666666,24,0,0.433713800041005,0.433713800041005,0.6005442999303341,False,near-rnd2,17,5,3,3.125,1,down,4,0
114,3,True,1.0671279000816867,800.0,50.0,33.0,10,False,2,up,0.16666666666666666,18,0.18695160001516342,0.46708159998524934,0.6540332000004128,0.3271734999725595,False,near-160,17,6,2,3.75,2,up,2,0
115,4,True,1.7560554000083357,800.0,33.0,50.0,0,False,3,up,0.16666666666666666,48,0,0.8165059000020847,0.8165059000020847,0.5156955000711605,False,near-rnd3,17,1,0,0.625,1,up,4,0
116,3,True,1.1021718999836594,800.0,50.0,33.0,0,False,2,up,0.16666666666666666,42,0,0.7318744000513107,0.7318744000513107,0.417001000023447,True,near-000,17,1,1,0.625,1,up,2,0
117,4,True,0.9602187999989837,800.0,800.0,50.0,0,False,0,down,0.16666666666666666,20,0,0.38362549990415573,0.38362549990415573,0.4116366000380367,True,near-rndm,17,5,4,3.125,1,down,4,0
118,3,True,1.2008787000086159,800.0,50.0,33.0,15,False,2,down,0.16666666666666666,14,0.263739199959673,0.29653479997068644,0.5602739999303594,0.8592027999693528,False,near-240,17,1,0,0.625,1,down,2,0
119,3,True,5.28946569992695,800.0,50.0,33.0,5,False,2,down,0.16666666666666666,32,0.10870519990567118,0.5858957000309601,0.6946008999366313,0.4069011000683531,False,near-080,17,3,2,1.875,1,down,4,0
120,4,True,1.0831479000626132,800.0,33.0,50.0,0,False,3,up,0.16666666666666666,48,0,0.8688753000460565,0.8688753000460565,1.426136099966243,False,near-rnd3,18,2,0,1.25,1,up,4,0
121,2,True,2.228141199913807,800.0,50.0,33.0,15,False,2,down,0.16666666666666666,14,0.25260899995919317,0.2692660999018699,0.5218750998610631,0.8969065999845043,False,near-240,18,2,0,1.25,2,down,2,0
122,3,True,1.5616905000060797,800.0,100.0,50.0,0,False,1,down,0.16666666666666666,24,0,0.45569390000309795,0.45569390000309795,0.6242520000087097,True,near-rnd2,18,6,4,3.75,1,down,4,0
123,1,True,2.4223185000009835,800.0,50.0,33.0,0,False,2,up,0.16666666666666666,42,0,0.7108689999440685,0.7108689999440685,0.42038939998019487,False,near-000,18,2,1,1.25,2,up,2,0
124,1,True,1.9841453999979421,800.0,800.0,50.0,0,False,0,down,0.16666666666666666,20,0,0.34741879999637604,0.34741879999637604,0.5517965999897569,True,near-rndm,18,6,5,3.75,1,down,4,0
125,4,True,1.2557214999105781,800.0,50.0,33.0,5,False,2,down,0.16666666666666666,32,0.12075390003155917,0.5984604000113904,0.7192143000429496,0.9310991000384092,True,near-080,18,4,3,2.5,1,down,4,0
126,4,True,1.340620300034061,800.0,50.0,33.0,10,False,2,up,0.16666666666666666,18,0.19566329999361187,0.35706079995725304,0.5527240999508649,0.7763325999258086,True,near-160,18,7,3,4.375,2,up,2,0
127,2,True,1.1085833000252023,800.0,33.0,50.0,0,False,3,up,0.16666666666666666,56,0,0.9240061000455171,0.9240061000455171,0.5815861999290064,True,near-rnd3,19,1,1,0.625,1,up,8,0
128,2,True,1.775024100090377,800.0,50.0,33.0,5,False,2,down,0.16666666666666666,32,0.09189239994157106,0.5745887999655679,0.6664811999071389,0.510104599990882,True,near-080,19,5,4,3.125,1,down,4,0
129,2,True,2.2998540999833494,800.0,50.0,33.0,10,False,2,up,0.16666666666666666,18,0.17373340006452054,0.338201200007461,0.5119346000719815,0.6049566000001505,False,near-160,19,8,3,5.0,2,up,2,0
130,1,True,1.928028199938126,800.0,50.0,33.0,15,False,2,down,0.16666666666666666,14,0.24864020000677556,0.3818326999899,0.6304728999966756,0.7619390999898314,True,near-240,19,3,1,1.875,2,down,2,0
131,3,True,1.2893535000039265,800.0,100.0,50.0,0,False,1,down,0.16666666666666666,24,0,0.4655203999718651,0.4655203999718651,0.7664063000120223,False,near-rnd2,19,7,4,4.375,1,down,4,0
132,2,True,0.8470893999328837,800.0,800.0,50.0,0,False,0,down,0.16666666666666666,16,0,0.30320550000760704,0.30320550000760704,0.6573629999766126,False,near-rndm,19,1,0,0.625,1,down,4,0
133,3,True,1.0469321999698877,800.0,50.0,33.0,0,False,2,up,0.16666666666666666,42,0,0.7359859000425786,0.7359859000425786,1.6621063000056893,True,near-000,19,3,2,1.875,2,up,2,0
134,1,True,1.364560200017877,800.0,50.0,33.0,15,False,2,down,0.16666666666666666,14,0.24853230000007898,0.27314810000825673,0.5216804000083357,0.7668616001028568,False,near-240,20,4,1,2.5,2,down,2,0
135,3,True,1.010217500035651,800.0,33.0,50.0,0,False,3,up,0.16666666666666666,56,0,0.9480267999460921,0.9480267999460921,0.4308451999677345,True,near-rnd3,20,2,2,1.25,1,up,8,0
136,4,True,1.2983835000777617,800.0,100.0,50.0,0,False,1,down,0.16666666666666666,24,0,0.45936830004211515,0.45936830004211515,0.5503147999988869,False,near-rnd2,20,8,4,5.0,1,down,4,0
137,2,True,1.384550700080581,800.0,50.0,33.0,5,False,2,down,0.16666666666666666,32,0.09521749999839813,0.5695208000252023,0.6647383000236005,0.5106276000151411,True,near-080,20,6,5,3.75,1,down,4,0
138,2,True,1.692147699999623,800.0,50.0,33.0,0,False,2,up,0.16666666666666666,42,0,0.7253539999946952,0.7253539999946952,0.4859069000231102,True,near-000,20,4,3,2.5,2,up,2,0
139,4,True,1.6145227000815794,800.0,50.0,33.0,10,False,2,up,0.16666666666666666,18,0.1973657999187708,0.3594988000113517,0.5568645999301225,0.8128966999938712,False,near-160,20,9,3,5.625,2,up,2,1
140,1,True,1.5442026000237092,800.0,800.0,50.0,0,False,0,down,0.16666666666666666,16,0,0.2847758000716567,0.2847758000716567,0.7054319999879226,True,near-rndm,20,2,1,1.25,1,down,4,0
141,1,True,1.1758646999951452,800.0,50.0,33.0,15,False,2,down,0.16666666666666666,14,0.25464820000343025,0.2692951000062749,0.5239433000097051,0.7354644000297412,True,near-240,21,5,2,3.125,2,down,2,0
142,1,True,1.1045682000694796,800.0,50.0,33.0,10,False,2,up,0.16666666666666666,19,0.16869950003456324,0.35082739999052137,0.5195269000250846,0.5948146999580786,True,near-160,21,1,1,0.625,2,up,1,0
143,1,True,1.5639662999892607,800.0,800.0,50.0,0,False,0,down,0.16666666666666666,16,0,0.28890990000218153,0.28890990000218153,0.6758471999783069,False,near-rndm,21,3,1,1.875,1,down,4,0
144,1,True,2.576989999972284,800.0,50.0,33.0,5,False,2,down,0.16666666666666666,28,0.09369529993273318,0.491133900010027,0.5848291999427602,1.1199557000072673,False,near-080,21,1,0,0.625,1,down,4,0
145,3,True,1.0307709000771865,800.0,100.0,50.0,0,False,1,down,0.16666666666666666,24,0,0.4557179999537766,0.4557179999537766,0.651463899994269,False,near-rnd2,21,9,4,5.625,1,down,4,1
146,4,True,1.2023052000440657,800.0,33.0,50.0,0,False,3,up,0.16666666666666666,56,0,0.9464812999358401,0.9464812999358401,0.4866840000031516,True,near-rnd3,21,3,3,1.875,1,up,8,0
147,1,True,2.416839300072752,800.0,50.0,33.0,0,False,2,up,0.16666666666666666,42,0,0.7155159999383613,0.7155159999383613,0.32391989999450743,False,near-000,21,5,3,3.125,2,up,2,0
148,4,True,4.520518499892205,800.0,100.0,50.0,0,False,1,up,0.16666666666666666,25,0,0.4754834999330342,0.4754834999330342,0.5507011000299826,True,near-rnd2,22,1,1,0.625,1,up,1,0
149,4,True,1.1648393999785185,800.0,33.0,50.0,0,False,3,down,0.16666666666666666,52,0,0.8868082000408322,0.8868082000408322,0.9981369000161067,False,near-rnd3,22,1,0,0.625,1,down,4,0
150,2,True,1.537483699969016,800.0,50.0,33.0,0,False,2,up,0.16666666666666666,42,0,0.7204900999786332,0.7204900999786332,0.4024695000844076,True,near-000,22,6,4,3.75,2,up,2,0
151,2,True,0.9172220999607816,800.0,50.0,33.0,5,False,2,down,0.16666666666666666,28,0.10156800004187971,0.5069561999989673,0.6085242000408471,0.6037704999325797,True,near-080,22,2,1,1.25,1,down,4,0
152,1,True,1.3208213000325486,800.0,800.0,50.0,0,False,0,down,0.16666666666666666,16,0,0.28433400008361787,0.28433400008361787,1.8202656999928877,False,near-rndm,22,4,1,2.5,1,down,4,0
153,2,True,1.526171899982728,800.0,50.0,33.0,15,False,2,down,0.16666666666666666,14,0.2536074999952689,0.28381649998482317,0.537423999980092,0.6231955999974161,True,near-240,22,6,3,3.75,2,down,2,0
154,1,True,1.41935950005427,800.0,50.0,33.0,10,False,2,up,0.16666666666666666,19,0.17084589996375144,0.34741230006329715,0.5182582000270486,0.4099489999935031,True,near-160,22,2,2,1.25,2,up,1,0
155,4,True,5.983013799996115,800.0,800.0,50.0,0,False,0,up,0.16666666666666666,18,0,0.35983510001096874,0.35983510001096874,0.540761600015685,True,near-rndm,23,1,1,0.625,1,up,2,0
156,3,True,0.9969233000883833,800.0,50.0,33.0,15,False,2,down,0.16666666666666666,14,0.26494110003113747,0.2925315999891609,0.5574727000202984,0.7194679999956861,False,near-240,23,7,3,4.375,2,down,2,0
157,1,True,1.8328513000160456,800.0,33.0,50.0,0,False,3,down,0.16666666666666666,52,0,0.8720010999822989,0.8720010999822989,0.4666948999511078,True,near-rnd3,23,2,1,1.25,1,down,4,0
158,3,True,1.0144373999210075,800.0,50.0,33.0,10,False,2,up,0.16666666666666666,19,0.18258689995855093,0.37524059996940196,0.5578274999279529,3.7896253999788314,True,near-160,23,3,3,1.875,2,up,1,0
159,3,True,1.2968509999336675,800.0,100.0,50.0,0,False,1,up,0.16666666666666666,25,0,0.4554070000303909,0.4554070000303909,0.5175815999973565,True,near-rnd2,23,2,2,1.25,2,up,1,0
160,1,True,1.3928942999336869,800.0,50.0,33.0,0,False,2,up,0.16666666666666666,42,0,0.7116608999203891,0.7116608999203891,0.6788241000613198,True,near-000,23,7,5,4.375,2,up,2,0
161,3,True,4.044303700095043,800.0,50.0,33.0,5,False,2,down,0.16666666666666666,28,0.09933740005362779,0.5013899999903515,0.6007274000439793,0.6053755999309942,True,near-080,23,3,2,1.875,1,down,4,0
162,1,True,1.77717290003784,800.0,50.0,33.0,10,False,2,up,0.16666666666666666,19,0.17325490002986044,0.34082899999339134,0.5140839000232518,0.6305268000578508,False,near-160,24,4,3,2.5,2,up,1,0
163,3,True,1.2487278000917286,800.0,50.0,33.0,5,False,2,down,0.16666666666666666,28,0.10043109999969602,0.5191772999241948,0.6196083999238908,0.5018418000545353,True,near-080,24,4,3,2.5,1,down,4,0
164,4,True,1.1817336999811232,800.0,50.0,33.0,15,False,2,down,0.16666666666666666,14,0.27710409997962415,0.29204380000010133,0.5691478999797255,0.6320228999247774,True,near-240,24,8,4,5.0,2,down,2,0
165,4,True,0.9597994000650942,800.0,50.0,33.0,0,False,2,up,0.16666666666666666,42,0,0.7482426000060514,0.7482426000060514,0.38283279992174357,True,near-000,24,8,6,5.0,2,up,2,0
166,2,True,1.2595829999772832,800.0,800.0,50.0,0,False,0,up,0.16666666666666666,18,0,0.33004620007704943,0.33004620007704943,0.5692984000779688,False,near-rndm,24,2,1,1.25,2,up,2,0
167,3,True,1.3313942999811843,800.0,33.0,50.0,0,False,3,down,0.16666666666666666,52,0,0.8789673999417573,0.8789673999417573,0.5079574999399483,False,near-rnd3,24,3,1,1.875,1,down,4,0
168,3,True,0.917666699970141,800.0,100.0,50.0,0,False,1,up,0.16666666666666666,25,0,0.45553939999081194,0.45553939999081194,0.436879999935627,True,near-rnd2,24,3,3,1.875,2,up,1,0
169,3,True,1.2443246999755502,800.0,50.0,33.0,10,False,2,up,0.16666666666666666,19,0.18558299995493144,0.3792738999472931,0.5648568999022245,0.6379229000303894,False,near-160,25,5,3,3.125,2,up,1,0
170,2,True,0.940593900042586,800.0,33.0,50.0,0,False,3,down,0.16666666666666666,52,0,0.8696482999948785,0.8696482999948785,0.41887270007282495,True,near-rnd3,25,4,2,2.5,1,down,4,0
171,2,True,0.8918717999476939,800.0,50.0,33.0,15,False,2,down,0.16666666666666666,14,0.25447579997126013,0.2832547000143677,0.5377304999856278,0.41023209993727505,True,near-240,25,9,5,5.625,2,down,2,1
172,2,True,0.8742611999623477,800.0,800.0,50.0,0,False,0,up,0.16666666666666666,18,0,0.32392340002115816,0.32392340002115816,0.5319430999225006,True,near-rndm,25,3,2,1.875,2,up,2,0
173,2,True,1.0132706000003964,800.0,100.0,50.0,0,False,1,up,0.16666666666666666,25,0,0.5555899000028148,0.5555899000028148,0.5111031000269577,True,near-rnd2,25,4,4,2.5,2,up,1,0
174,2,True,1.0217675999738276,800.0,50.0,33.0,5,False,2,down,0.16666666666666666,28,0.09667540004011244,0.49549349991139024,0.5921688999515027,0.5387544999830425,True,near-080,25,5,4,3.125,1,down,4,0
175,1,True,2.8166381999617442,800.0,50.0,33.0,0,False,2,up,0.16666666666666666,42,0,0.7103974999627098,0.7103974999627098,0.5652554000262171,True,near-000,25,9,7,5.625,2,up,2,1
176,4,True,0.9815175000112504,800.0,800.0,50.0,0,False,0,up,0.16666666666666666,18,0,0.3533096000319347,0.3533096000319347,0.541447899886407,True,near-rndm,26,4,3,2.5,2,up,2,0
177,1,True,1.185152400052175,800.0,50.0,33.0,0,False,2,up,0.16666666666666666,42,0,0.7057952000759542,0.7057952000759542,0.5051256000297144,False,near-000,26,10,7,6.25,2,up,2,1
178,1,True,0.971019700053148,800.0,33.0,50.0,0,False,3,down,0.16666666666666666,52,0,0.8538887000177056,0.8538887000177056,0.6742186000337824,False,near-rnd3,26,5,2,3.125,1,down,4,0
179,1,True,1.3032447999576107,800.0,100.0,50.0,0,False,1,up,0.16666666666666666,25,0,0.43849049997515976,0.43849049997515976,0.4935495000099763,True,near-rnd2,26,5,5,3.125,2,up,1,0
180,1,True,1.128551899921149,800.0,50.0,33.0,5,False,2,down,0.16666666666666666,28,0.09421110001858324,0.5004976000636816,0.5947087000822648,1.3138590999878943,False,near-080,26,6,4,3.75,1,down,4,0
181,2,True,0.9829951000865549,800.0,50.0,33.0,10,False,2,up,0.16666666666666666,19,0.17134359991177917,0.3596565000480041,0.5310000999597833,0.5419180999742821,True,near-160,26,6,4,3.75,2,up,1,0
182,1,True,1.698529800050892,800.0,50.0,33.0,15,False,2,down,0.16666666666666666,14,0.24932719999924302,0.2704487000592053,0.5197759000584483,0.5035949000157416,True,near-240,26,10,6,6.25,2,down,2,1
183,2,True,1.3757067000260577,800.0,50.0,33.0,5,False,2,down,0.16666666666666666,28,0.09324479999486357,0.5037475000135601,0.5969923000084236,0.39245070004835725,True,near-080,27,7,5,4.375,1,down,4,0
184,3,True,0.7951149999862537,800.0,33.0,50.0,0,False,3,up,0.16666666666666666,54,0,0.908396799932234,0.908396799932234,0.3522859999211505,True,near-rnd3,27,1,1,0.625,1,up,2,0
185,3,True,1.41640180000104,800.0,800.0,50.0,0,False,0,up,0.16666666666666666,18,0,0.33687450003344566,0.33687450003344566,0.3520950999809429,True,near-rndm,27,5,4,3.125,2,up,2,0
186,3,True,0.9168266999768093,800.0,100.0,50.0,0,False,1,up,0.16666666666666666,25,0,0.46258559997659177,0.46258559997659177,0.787359100067988,False,near-rnd2,27,6,5,3.75,2,up,1,0
187,2,True,0.9858380999648944,800.0,50.0,33.0,10,False,2,up,0.16666666666666666,19,0.17095709999557585,0.34828350006137043,0.5192406000569463,0.6588172999909148,True,near-160,27,7,5,4.375,2,up,1,0
188,2,True,1.054638700094074,800.0,50.0,33.0,15,False,2,down,0.16666666666666666,14,0.2553944999817759,0.27533070009667426,0.5307252000784501,0.6019197000423446,True,near-240,27,11,7,6.875,2,down,2,1
189,4,True,0.9087825999595225,800.0,50.0,33.0,0,False,2,up,0.16666666666666666,42,0,0.7417799000395462,0.7417799000395462,0.47172970010433346,True,near-000,27,11,8,6.875,2,up,2,1
190,3,True,1.0856548000592738,800.0,50.0,33.0,10,False,2,up,0.16666666666666666,19,0.1887062001042068,0.3717682999558747,0.5604745000600815,0.4965446999995038,True,near-160,28,8,6,5.0,2,up,1,0
191,1,True,3.965025100042112,800.0,50.0,33.0,0,False,2,up,0.16666666666666666,42,0,0.7155205000890419,0.7155205000890419,0.33651920000556856,True,near-000,28,12,9,7.5,2,up,2,1
192,4,True,1.8451736000133678,800.0,100.0,50.0,0,False,1,up,0.16666666666666666,25,0,0.47623229993041605,0.47623229993041605,0.5792252999963239,True,near-rnd2,28,7,6,4.375,2,up,1,0
193,3,True,1.3850162000162527,800.0,50.0,33.0,5,False,2,down,0.16666666666666666,28,0.09615899994969368,0.518888899940066,0.6150478998897597,0.5033551999367774,True,near-080,28,8,6,5.0,1,down,4,0
194,2,True,0.8163548000156879,800.0,33.0,50.0,0,False,3,up,0.16666666666666666,54,0,0.8967778000514954,0.8967778000514954,0.41572759998962283,True,near-rnd3,28,2,2,1.25,2,up,2,0
195,2,True,0.9760736000025645,800.0,50.0,33.0,15,False,2,down,0.16666666666666666,14,0.26125870004761964,0.2683521000435576,0.5296108000911772,0.47653859993442893,False,near-240,28,12,7,7.5,2,down,2,1
196,4,True,0.8608464000280946,800.0,800.0,50.0,0,False,0,up,0.16666666666666666,18,0,0.3336256000911817,0.3336256000911817,0.5025229000020772,True,near-rndm,28,6,5,3.75,2,up,2,0
197,3,True,0.98141210002359,800.0,33.0,50.0,0,False,3,up,0.16666666666666666,54,0,0.9082265999168158,0.9082265999168158,0.5427233000518754,True,near-rnd3,29,3,3,1.875,2,up,2,0
198,3,True,0.8631830000085756,800.0,50.0,33.0,0,False,2,up,0.16666666666666666,42,0,0.7961561999982223,0.7961561999982223,1.1312123000388965,True,near-000,29,13,10,8.125,2,up,2,1
199,3,True,1.5515971999848261,800.0,50.0,33.0,15,False,2,down,0.16666666666666666,14,0.25505050003994256,0.2938876999542117,0.5489381999941543,0.5795023000100628,True,near-240,29,13,8,8.125,2,down,2,1
200,2,True,1.4754309999989346,800.0,50.0,33.0,10,False,2,up,0.16666666666666666,19,0.17961099999956787,0.3519871999742463,0.5315981999738142,0.57063069997821,True,near-160,29,9,7,5.625,2,up,1,1
201,2,True,0.9212374999187887,800.0,100.0,50.0,0,False,1,up,0.16666666666666666,25,0,0.4588521000696346,0.4588521000696346,0.5373814998893067,True,near-rnd2,29,8,7,5.0,2,up,1,0
202,4,True,1.024462900008075,800.0,800.0,50.0,0,False,0,up,0.16666666666666666,18,0,0.34619489999022335,0.34619489999022335,0.4347933999961242,True,near-rndm,29,7,6,4.375,2,up,2,0
203,3,True,1.4093303999397904,800.0,50.0,33.0,5,False,2,down,0.16666666666666666,28,0.10396899993065745,0.5031103000510484,0.6070792999817058,0.5593256000429392,False,near-080,29,9,6,5.625,1,down,4,1
204,1,True,1.7739782000426203,800.0,33.0,50.0,0,False,3,up,0.16666666666666666,54,0,0.890690500033088,0.890690500033088,0.5618748000124469,False,near-rnd3,30,4,3,2.5,2,up,2,0
205,4,True,1.1890266999835148,800.0,800.0,50.0,0,False,0,up,0.16666666666666666,18,0,0.3570273000514135,0.3570273000514135,0.48473510006442666,True,near-rndm,30,8,7,5.0,2,up,2,0
206,1,True,1.5659179999493062,800.0,100.0,50.0,0,False,1,up,0.16666666666666666,25,0,0.4472863000119105,0.4472863000119105,0.616058100014925,True,near-rnd2,30,9,8,5.625,2,up,1,1
207,2,True,1.0340870999498293,800.0,50.0,33.0,15,False,2,down,0.16666666666666666,14,0.2616959000006318,0.28009100002236664,0.5417869000229985,0.6667641999665648,True,near-240,30,14,9,8.75,2,down,2,1
208,2,True,0.8266194000607356,800.0,50.0,33.0,5,False,2,down,0.16666666666666666,28,0.0991965999128297,0.5083681999240071,0.6075647998368368,0.6812341000186279,False,near-080,30,10,6,6.25,1,down,4,1
209,1,True,1.6716001000022516,800.0,50.0,33.0,0,False,2,up,0.16666666666666666,42,0,0.7132643000222743,0.7132643000222743,0.4975869000190869,True,near-000,30,14,11,8.75,2,up,2,1
210,2,True,2.6206033000489697,800.0,50.0,33.0,10,False,2,up,0.16666666666666666,19,0.17651939997449517,0.34953130001667887,0.526050699991174,0.48053579998668283,True,near-160,30,10,8,6.25,2,up,1,1
211,1,True,1.5184084000065923,800.0,50.0,33.0,0,False,2,down,0.16666666666666666,41,0,0.6991730999434367,0.6991730999434367,0.3613829000387341,True,near-000,31,1,1,0.625,2,down,1,0
212,2,True,0.8834057999774814,800.0,50.0,33.0,15,False,2,down,0.16666666666666666,14,0.258635799982585,0.2802509000757709,0.5388867000583559,0.8301182000432163,False,near-240,31,15,9,9.375,2,down,2,1
213,4,True,1.270862599951215,800.0,33.0,50.0,0,False,3,up,0.16666666666666666,54,0,0.906851900042966,0.906851900042966,0.4084298999514431,True,near-rnd3,31,5,4,3.125,2,up,2,0
214,1,True,1.5105722999433056,800.0,50.0,33.0,5,False,2,down,0.16666666666666666,28,0.09053569997195154,0.4958515999605879,0.5863872999325395,0.4095507999882102,True,near-080,31,11,7,6.875,1,down,4,1
215,3,True,0.9927589000435546,800.0,800.0,50.0,0,False,0,up,0.16666666666666666,18,0,0.3422214000020176,0.3422214000020176,0.6225599999306723,True,near-rndm,31,9,8,5.625,2,up,2,1
216,1,True,1.239184300065972,800.0,50.0,33.0,10,False,2,up,0.16666666666666666,19,0.17171569995116442,0.3498670000117272,0.5215826999628916,0.49809729994740337,True,near-160,31,11,9,6.875,2,up,1,1
217,1,True,1.3859463999979198,800.0,50.0,33.0,5,False,2,down,0.16666666666666666,28,0.09211379999760538,0.49119299999438226,0.5833067999919876,0.4550671000033617,True,near-080,32,12,8,7.5,1,down,4,1
218,1,True,1.5004258000990376,800.0,50.0,33.0,15,False,2,down,0.16666666666666666,14,0.2474305999930948,0.2726702999789268,0.5201008999720216,1.035739199956879,False,near-240,32,16,9,10.0,2,down,2,1
219,2,True,1.3514839999843389,800.0,800.0,50.0,0,False,0,down,0.16666666666666666,17,0,0.32008430000860244,0.32008430000860244,0.43915909994393587,True,near-rndm,32,1,1,0.625,2,down,1,0
220,4,True,1.1520035000285134,800.0,50.0,33.0,0,False,2,down,0.16666666666666666,41,0,0.7155773000558838,0.7155773000558838,0.31190249999053776,False,near-000,32,2,1,1.25,3,down,1,0
221,1,True,2.0461413000011817,800.0,33.0,50.0,0,False,3,up,0.16666666666666666,54,0,0.8872068000491709,0.8872068000491709,0.39302519999910146,True,near-rnd3,32,6,5,3.75,2,up,2,0
222,3,True,1.0652628999669105,800.0,33.0,50.0,0,False,3,up,0.16666666666666666,54,0,0.9068254999583587,0.9068254999583587,0.49983890005387366,True,near-rnd3,33,7,6,4.375,2,up,2,0
223,1,True,1.2849052000092342,800.0,50.0,33.0,15,False,2,down,0.16666666666666666,14,0.24778139998670667,0.26305369997862726,0.5108350999653339,0.6313520999392495,True,near-240,33,17,10,10.625,2,down,2,2
224,3,True,1.096503800014034,800.0,800.0,50.0,0,False,0,down,0.16666666666666666,17,0,0.3170545999892056,0.3170545999892056,0.688874899991788,True,near-rndm,33,2,2,1.25,3,down,1,0
225,2,True,2.2112502000527456,800.0,50.0,33.0,5,False,2,down,0.16666666666666666,28,0.09287090005818754,0.49566200003027916,0.5885329000884667,0.5494845000794157,True,near-080,33,13,9,8.125,1,down,4,1
226,1,True,2.8728235999587923,800.0,50.0,33.0,0,False,2,down,0.16666666666666666,41,0,0.694803399965167,0.694803399965167,0.4775467000436038,True,near-000,33,3,2,1.875,3,down,1,0
227,1,True,1.2755560000659898,800.0,50.0,33.0,15,False,2,down,0.16666666666666666,14,0.24981750000733882,0.26893220003694296,0.5187497000442818,0.48405880003701895,True,near-240,34,18,11,11.25,2,down,2,2
228,1,True,2.237192500033416,800.0,33.0,50.0,0,False,3,up,0.16666666666666666,54,0,0.8826113999821246,0.8826113999821246,0.36130540003068745,True,near-rnd3,34,8,7,5.0,2,up,2,0
229,2,True,1.3545865999767557,800.0,800.0,50.0,0,False,0,down,0.16666666666666666,17,0,0.31149289989843965,0.31149289989843965,0.4933573000598699,True,near-rndm,34,3,3,1.875,3,down,1,0
230,1,True,1.2064641000470147,800.0,50.0,33.0,0,False,2,down,0.16666666666666666,41,0,0.6975556999677792,0.6975556999677792,0.4467490999959409,True,near-000,34,4,3,2.5,3,down,1,0
231,1,True,1.5692619000328705,800.0,50.0,33.0,5,False,2,down,0.16666666666666666,28,0.08973179990425706,0.48759190004784614,0.5773236999521032,0.4533213000977412,True,near-080,34,14,10,8.75,1,down,4,1
232,4,True,0.9575630000326782,800.0,800.0,50.0,0,False,0,down,0.16666666666666666,17,0,0.3368110000155866,0.3368110000155866,0.6394569999538362,True,near-rndm,35,4,4,2.5,3,down,1,0
233,3,True,1.9753247000044212,800.0,50.0,33.0,0,False,2,down,0.16666666666666666,41,0,0.7228156999917701,0.7228156999917701,0.7339585999725387,False,near-000,35,5,3,3.125,3,down,1,0
234,2,True,0.7781512000365183,800.0,33.0,50.0,0,False,3,up,0.16666666666666666,54,0,0.8994898999808356,0.8994898999808356,0.5500124000245705,True,near-rnd3,35,9,8,5.625,2,up,2,1
235,4,True,1.8746698999311775,800.0,50.0,33.0,15,False,2,down,0.16666666666666666,14,0.27588870003819466,0.3080039999913424,0.5838927000295371,0.47540470003150403,True,near-240,35,19,12,11.875,2,down,2,2
236,2,True,0.9031377000501379,800.0,50.0,33.0,5,False,2,down,0.16666666666666666,26,0.09795179998036474,0.466911599971354,0.5648633999517187,0.5741635999875143,True,near-080,35,1,1,0.625,1,down,2,0
237,2,True,1.200110699981451,800.0,50.0,33.0,15,False,2,down,0.16666666666666666,14,0.25580120005179197,0.28392179997172207,0.539723000023514,0.4187923000426963,True,near-240,36,20,13,12.5,2,down,2,2
238,1,True,1.7539914000080898,800.0,33.0,50.0,0,False,3,down,0.16666666666666666,53,0,0.8714529999997467,0.8714529999997467,0.3497608999023214,True,near-rnd3,36,1,1,0.625,2,down,1,0
239,2,True,1.0969969000434503,800.0,800.0,50.0,0,False,0,down,0.16666666666666666,17,0,0.3139557000249624,0.3139557000249624,0.5116881999420002,True,near-rndm,36,5,5,3.125,3,down,1,0
240,1,True,2.238568300032057,800.0,50.0,33.0,5,False,2,down,0.16666666666666666,26,0.08845359995029867,0.45778890000656247,0.5462424999568611,0.5067648000549525,False,near-080,36,2,1,1.25,2,down,2,0
241,1,True,1.2019397999392822,800.0,50.0,33.0,0,False,2,down,0.16666666666666666,41,0,0.6909160000504926,0.6909160000504926,0.28978280001319945,True,near-000,36,6,4,3.75,3,down,1,0
242,2,True,0.7139157000929117,800.0,800.0,50.0,0,False,0,down,0.16666666666666666,17,0,0.31022340001072735,0.31022340001072735,0.45748940005432814,True,near-rndm,37,6,6,3.75,3,down,1,0
243,3,True,1.6210354999639094,800.0,50.0,33.0,5,False,2,down,0.16666666666666666,26,0.09954019996803254,0.47497680003289133,0.5745170000009239,0.5910349999321625,False,near-080,37,3,1,1.875,2,down,2,0
244,2,True,1.0614284999901429,800.0,50.0,33.0,0,False,2,down,0.16666666666666666,41,0,0.6971435999730602,0.6971435999730602,0.43997499998658895,True,near-000,37,7,5,4.375,3,down,1,0
245,2,True,1.181687799980864,800.0,50.0,33.0,15,False,2,down,0.16666666666666666,14,0.2512141999322921,0.27807390002999455,0.5292880999622867,0.5270787000190467,False,near-240,37,21,13,13.125,2,down,2,2
246,1,True,1.90379530005157,800.0,33.0,50.0,0,False,3,down,0.16666666666666666,53,0,0.869805800030008,0.869805800030008,0.5932745999889448,True,near-rnd3,37,2,2,1.25,3,down,1,0
247,2,True,1.4105759999947622,800.0,50.0,33.0,5,False,2,down,0.16666666666666666,26,0.10261329996865243,0.4630999999353662,0.5657132999040186,0.3679328999714926,True,near-080,38,4,2,2.5,2,down,2,0
248,1,True,1.2077781000407413,800.0,33.0,50.0,0,False,3,down,0.16666666666666666,53,0,0.8733815999003127,0.8733815999003127,0.5082643999485299,True,near-rnd3,38,3,3,1.875,3,down,1,0
249,3,True,2.8623247999930754,800.0,800.0,50.0,0,False,0,down,0.16666666666666666,17,0,0.33117199991829693,0.33117199991829693,0.5726733000483364,True,near-rndm,38,7,7,4.375,3,down,1,0
250,2,True,0.9300134999211878,800.0,50.0,33.0,15,False,2,down,0.16666666666666666,14,0.25823540007695556,0.31468759989365935,0.5729229999706149,0.7331609999528155,False,near-240,38,22,13,13.75,2,down,2,2
251,3,True,1.0077168999705464,800.0,50.0,33.0,0,False,2,down,0.16666666666666666,41,0,0.8353574000066146,0.8353574000066146,0.15010709990747273,True,near-000,38,8,6,5.0,3,down,1,0
252,2,True,1.042488900013268,800.0,33.0,50.0,0,False,3,down,0.16666666666666666,53,0,0.8788157999515533,0.8788157999515533,0.13073019997682422,True,near-rnd3,39,4,4,2.5,3,down,1,0
253,1,True,1.5331761999987066,800.0,50.0,33.0,15,False,2,down,0.16666666666666666,14,0.2535350000252947,0.2688357000006363,0.522370700025931,0.7975147999823093,False,near-240,39,23,13,14.375,2,down,2,2
254,1,True,1.7492398000322282,800.0,800.0,50.0,0,False,0,down,0.16666666666666666,17,0,0.29888589994516224,0.29888589994516224,0.5404222999932244,True,near-rndm,39,8,8,5.0,3,down,1,0
255,1,True,1.5044780999887735,800.0,50.0,33.0,5,False,2,down,0.16666666666666666,26,0.08806290000211447,0.4559051999822259,0.5439680999843404,0.6294596999650821,False,near-080,39,5,2,3.125,2,down,2,0
256,1,True,2.0495906000724062,800.0,50.0,33.0,5,False,2,down,0.16666666666666666,26,0.08697760000359267,0.45990820007864386,0.5468858000822365,0.5714234000770375,True,near-080,40,6,3,3.75,2,down,2,0
257,1,True,1.7709814000409096,800.0,50.0,33.0,15,False,2,down,0.16666666666666666,14,0.24856399989221245,0.2706692999927327,0.5192332998849452,0.4275708000641316,False,near-240,40,24,13,15.0,2,down,2,2
258,2,True,1.1053527999902144,800.0,33.0,50.0,0,False,3,down,0.16666666666666666,53,0,0.8741910000098869,0.8741910000098869,0.5307634000200778,True,near-rnd3,40,5,5,3.125,3,down,1,0
259,2,True,0.8790137999458238,800.0,50.0,33.0,5,False,2,down,0.16666666666666666,26,0.09130980004556477,0.47077290003653616,0.5620827000821009,0.5313566999975592,True,near-080,41,7,4,4.375,2,down,2,0
260,2,True,1.220581299974583,800.0,33.0,50.0,0,False,3,down,0.16666666666666666,53,0,0.8825616000685841,0.8825616000685841,0.49747910001315176,True,near-rnd3,41,6,6,3.75,3,down,1,0
261,2,True,1.6483502999180928,800.0,50.0,33.0,5,False,2,down,0.16666666666666666,26,0.10366590006742626,0.47238729998935014,0.5760532000567764,0.435431000078097,True,near-080,42,8,5,5.0,2,down,2,0
262,1,True,1.5967151001095772,800.0,33.0,50.0,0,False,3,down,0.16666666666666666,53,0,0.8691982999444008,0.8691982999444008,0.7977146999910474,True,near-rnd3,42,7,7,4.375,3,down,1,0
263,2,True,1.5078164000296965,800.0,33.0,50.0,0,False,3,down,0.16666666666666666,53,0,0.8785266999620944,0.8785266999620944,0.48346689995378256,True,near-rnd3,43,8,8,5.0,3,down,1,0
264,1,True,1.5032060000812635,800.0,50.0,33.0,5,False,2,down,0.16666666666666666,26,0.09092049999162555,0.46336169994901866,0.5542821999406442,0.6222737999632955,True,near-080,43,9,6,5.625,2,down,2,1
265,1,True,1.7161231000209227,800.0,33.0,50.0,0,False,3,down,0.16666666666666666,53,0,0.8690192999783903,0.8690192999783903,0.4499272999819368,True,near-rnd3,44,9,9,5.625,3,down,16,1
266,2,True,1.5070574999554083,800.0,800.0,50.0,0,False,0,down,0.16666666666666666,17,0,0.3032891999464482,0.3032891999464482,0.7637287999968976,True,near-rndm,40,9,9,5.625,3,down,16,1
267,4,True,0.966110699926503,800.0,50.0,33.0,5,False,2,down,0.16666666666666666,26,0.10427649994380772,0.4795357999391854,0.5838122998829931,0.6231328999856487,True,near-080,44,10,7,6.25,2,down,2,1
268,1,True,1.2008718000724912,800.0,100.0,50.0,0,False,1,down,0.16666666666666666,24,0,0.42442239995580167,0.42442239995580167,1.4863163999980316,True,near-rnd2,31,1,1,0.625,2,down,16,0
269,1,True,1.5575771000003442,800.0,33.0,50.0,0,False,3,down,0.16666666666666666,37,0,0.6127934999531135,0.6127934999531135,0.9057449999963865,False,near-rnd3,45,1,0,0.625,0.5,down,8,0
270,4,True,1.1207937999861315,800.0,100.0,50.0,0,False,1,down,0.16666666666666666,23,0,0.43987960007507354,0.43987960007507354,0.7454143000068143,False,near-rnd2,32,1,0,0.625,1.0,down,16,0
271,3,True,0.9372117000166327,800.0,800.0,50.0,0,False,0,down,0.16666666666666666,1,0,0.060091699939221144,0.060091699939221144,0.8116142000071704,True,near-rndm,41,1,1,0.625,0.5,down,8,0
272,1,True,1.5188516000052914,800.0,50.0,33.0,5,False,2,down,0.16666666666666666,26,0.09452879999298602,0.45672390004619956,0.5512527000391856,0.6324161000084132,False,near-080,45,11,7,6.875,2,down,2,1
273,2,True,0.9298481000587344,800.0,50.0,33.0,5,False,2,down,0.16666666666666666,26,0.09426239994354546,0.4756770000094548,0.5699393999530002,0.4548707000212744,True,near-080,46,12,8,7.5,2,down,2,1
274,2,True,1.3982598999282345,800.0,100.0,50.0,0,False,1,down,0.16666666666666666,23,0,0.4157232000725344,0.4157232000725344,0.5441049000946805,True,near-rnd2,33,2,1,1.25,1.0,down,16,0
275,1,True,2.2134951999178156,800.0,800.0,50.0,0,False,0,down,0.16666666666666666,0,0,0.0226044999435544,0.0226044999435544,0.8071315999841318,False,near-rndm,42,1,0,0.625,1,down,8,0
276,3,True,1.5978488998953253,800.0,33.0,50.0,0,False,3,down,0.16666666666666666,37,0,0.6439577999990433,0.6439577999990433,1.001192199997604,True,near-rnd3,46,2,1,1.25,1,down,8,0
277,3,True,1.1191131999948993,800.0,33.0,50.0,0,False,3,down,0.16666666666666666,29,0,0.5048261999618262,0.5048261999618262,1.110641699982807,True,near-rnd3,47,1,1,0.625,1,down,8,0
278,2,True,1.021259699948132,800.0,100.0,50.0,0,False,1,down,0.16666666666666666,22,0,0.3973095000255853,0.3973095000255853,0.8176704999059439,False,near-rnd2,34,1,0,0.625,0.5,down,16,0
279,2,True,0.918111199978739,800.0,800.0,50.0,0,False,0,down,0.16666666666666666,0,0,0.03340299997944385,0.03340299997944385,0.9603076999774203,True,near-rndm,43,2,1,1.25,1,down,8,0
280,2,True,1.6620260999770835,800.0,50.0,33.0,5,False,2,down,0.16666666666666666,26,0.09202250000089407,0.4636604000115767,0.5556829000124708,0.620522000011988,False,near-080,47,13,8,8.125,2,down,2,1
281,1,True,1.2786483999807388,800.0,800.0,50.0,0,False,0,down,0.16666666666666666,0,0,0.027802899945527315,0.027802899945527315,1.0243358999723569,False,near-rndm,44,1,0,0.625,1,down,8,0
282,2,True,1.4778341999044642,800.0,100.0,50.0,0,False,1,up,0.16666666666666666,30,0,0.5300909000216052,0.5300909000216052,0.6190079000080004,True,near-rnd2,35,1,1,0.625,0.5,up,8,0
283,3,True,1.1440902999602258,800.0,50.0,33.0,5,False,2,down,0.16666666666666666,26,0.10397509997710586,0.48876340000424534,0.5927384999813512,1.0826788999838755,True,near-080,48,14,9,8.75,2,down,2,1
284,3,True,1.3164425999857485,800.0,33.0,50.0,0,False,3,down,0.16666666666666666,21,0,0.37097849999554455,0.37097849999554455,0.7723880000412464,False,near-rnd3,48,1,0,0.625,1,down,8,0
285,1,True,1.4676667999010533,800.0,50.0,33.0,5,False,2,down,0.16666666666666666,26,0.08730690006632358,0.4499917000066489,0.5372986000729725,0.5378843999933451,True,near-080,49,15,10,9.375,2,down,2,1
286,1,True,1.615825799992308,800.0,100.0,50.0,0,False,1,up,0.16666666666666666,30,0,0.5177737000631168,0.5177737000631168,0.37619969993829727,True,near-rnd2,36,2,2,1.25,1,up,8,0
287,2,True,1.0549593000905588,800.0,800.0,50.0,0,False,0,down,0.16666666666666666,0,0,0.03270380001049489,0.03270380001049489,0.7435216999147087,False,near-rndm,45,2,0,1.25,1,down,8,0
288,1,True,1.165665400098078,800.0,33.0,50.0,0,False,3,down,0.16666666666666666,21,0,0.35268509993329644,0.35268509993329644,0.813876900007017,False,near-rnd3,49,2,0,1.25,1,down,8,0
289,2,True,1.096538900048472,800.0,50.0,33.0,5,False,2,down,0.16666666666666666,26,0.10066979995463043,0.4647023999132216,0.565372199867852,0.38520410005003214,True,near-080,50,16,11,10.0,2,down,2,1
290,2,True,0.771174699999392,800.0,100.0,50.0,0,False,1,up,0.16666666666666666,30,0,0.5395152999553829,0.5395152999553829,0.316597199998796,True,near-rnd2,37,3,3,1.875,1,up,8,0
291,2,True,0.8571187000488862,800.0,33.0,50.0,0,False,3,up,0.16666666666666666,25,0,0.43762959993910044,0.43762959993910044,0.921933599980548,False,near-rnd3,50,1,0,0.625,1,up,4,0
292,3,True,1.5450844999868423,800.0,800.0,50.0,0,False,0,up,0.16666666666666666,4,0,0.1123842999804765,0.1123842999804765,0.7888154999818653,True,near-rndm,46,1,1,0.625,1,up,4,0
293,2,True,1.023344699991867,800.0,33.0,50.0,0,False,3,up,0.16666666666666666,25,0,0.43507320003118366,0.43507320003118366,1.0468556000851095,False,near-rnd3,51,2,0,1.25,1,up,4,0
294,1,True,1.3272547000087798,800.0,800.0,50.0,0,False,0,up,0.16666666666666666,4,0,0.09098550002090633,0.09098550002090633,0.7184545999625698,True,near-rndm,47,2,2,1.25,1,up,4,0
295,1,True,1.3946074999403208,800.0,50.0,33.0,5,False,2,down,0.16666666666666666,26,0.09241920011118054,0.4580058000283316,0.5504250001395121,0.427354299928993,False,near-080,51,17,11,10.625,2,down,2,2
296,4,True,0.7632368999766186,800.0,100.0,50.0,0,False,1,down,0.16666666666666666,26,0,0.483608299982734,0.483608299982734,0.5781247999984771,True,near-rnd2,38,1,1,0.625,1,down,4,0
297,2,True,1.6394514000276104,800.0,800.0,50.0,0,False,0,up,0.16666666666666666,4,0,0.10708949994295835,0.10708949994295835,0.7609622000018135,True,near-rndm,48,3,3,1.875,1,up,4,0
298,2,True,1.4797891000052914,800.0,33.0,50.0,0,False,3,up,0.16666666666666666,29,0,0.49055229988880455,0.49055229988880455,1.102022900013253,False,near-rnd3,52,1,0,0.625,1,up,4,0
299,4,True,1.1808356000110507,800.0,100.0,50.0,0,False,1,down,0.16666666666666666,26,0,0.4910785999381915,0.4910785999381915,0.5547562999418005,True,near-rnd2,39,2,2,1.25,1,down,4,0
300,3,True,1.289196400088258,800.0,50.0,33.0,5,False,2,down,0.16666666666666666,26,0.11217420001048595,0.48470059991814196,0.5968747999286279,0.45775369997136295,True,near-080,52,18,12,11.25,2,down,2,2
301,3,True,1.293840500060469,800.0,100.0,50.0,0,False,1,down,0.16666666666666666,26,0,0.4760380999650806,0.4760380999650806,0.5270453999983147,False,near-rnd2,40,3,2,1.875,1,down,4,0
302,2,True,1.6324383000610396,800.0,50.0,33.0,5,False,2,down,0.16666666666666666,26,0.09320020000450313,0.47692399995867163,0.5701241999631748,0.5538391000591218,True,near-080,53,19,13,11.875,2,down,2,2
303,3,True,1.174093799898401,800.0,33.0,50.0,0,False,3,up,0.16666666666666666,29,0,0.499409299925901,0.499409299925901,0.8406899999827147,False,near-rnd3,53,2,0,1.25,1,up,4,0
304,4,True,2.767225500079803,800.0,800.0,50.0,0,False,0,down,0.16666666666666666,2,0,0.09684030001517385,0.09684030001517385,0.8600718999514356,False,near-rndm,49,1,0,0.625,1,down,2,0
305,3,True,1.470013999962248,800.0,100.0,50.0,0,False,1,down,0.16666666666666666,26,0,0.47040940006263554,0.47040940006263554,0.6097382000880316,True,near-rnd2,41,4,3,2.5,1,down,4,0
306,3,True,1.1321086999960244,800.0,33.0,50.0,0,False,3,up,0.16666666666666666,33,0,0.6915766999591142,0.6915766999591142,0.4116668999195099,True,near-rnd3,54,1,1,0.625,1,up,4,0
307,2,True,0.7109920000657439,800.0,800.0,50.0,0,False,0,down,0.16666666666666666,2,0,0.07093130005523562,0.07093130005523562,0.7442113999277353,False,near-rndm,50,2,0,1.25,2,down,2,0
308,1,True,2.160498300101608,800.0,50.0,33.0,5,False,2,down,0.16666666666666666,26,0.0893328000092879,0.4598542000167072,0.5491870000259951,0.936861600028351,False,near-080,54,20,13,12.5,2,down,2,2
309,1,True,2.086607800098136,800.0,800.0,50.0,0,False,0,down,0.16666666666666666,2,0,0.06316799996420741,0.06316799996420741,0.7212065999628976,False,near-rndm,51,3,0,1.875,2,down,2,0
310,3,True,0.8324643999803811,800.0,100.0,50.0,0,False,1,down,0.16666666666666666,26,0,0.4825593000277877,0.4825593000277877,0.455466799903661,True,near-rnd2,42,5,4,3.125,1,down,4,0
311,1,True,1.5335475999163464,800.0,33.0,50.0,0,False,3,up,0.16666666666666666,33,0,0.5500523999799043,0.5500523999799043,0.4732143000001088,False,near-rnd3,55,2,1,1.25,1,up,4,0
312,2,True,1.2201502999523655,800.0,50.0,33.0,5,False,2,down,0.16666666666666666,26,0.0998490999918431,0.4738490000599995,0.5736981000518426,0.6605180000187829,True,near-080,55,21,14,13.125,2,down,2,2
313,1,True,1.3888162000803277,800.0,100.0,50.0,0,False,1,down,0.16666666666666666,26,0,0.4607526999898255,0.4607526999898255,0.5556347999954596,True,near-rnd2,43,6,5,3.75,1,down,4,0
314,4,True,1.9542936999350786,800.0,800.0,50.0,0,False,0,down,0.16666666666666666,2,0,0.10008350003045052,0.10008350003045052,0.8918154001003131,True,near-rndm,52,4,1,2.5,2,down,2,0
315,1,True,1.5073573000263423,800.0,50.0,33.0,5,False,2,down,0.16666666666666666,26,0.09142419998534024,0.45211199996992946,0.5435361999552697,0.5369743999326602,False,near-080,56,22,14,13.75,2,down,2,2
316,4,True,1.6554977999767289,800.0,33.0,50.0,0,False,3,up,0.16666666666666666,33,0,0.5850492999888957,0.5850492999888957,0.9745612000115216,False,near-rnd3,56,3,1,1.875,1,up,4,0
317,3,True,1.5860768998973072,800.0,33.0,50.0,0,False,3,up,0.16666666666666666,33,0,0.5618511999491602,0.5618511999491602,0.499702199944295,False,near-rnd3,57,4,1,2.5,1,up,4,0
318,1,True,1.6347144999308512,800.0,800.0,50.0,0,False,0,down,0.16666666666666666,2,0,0.062102199997752905,0.062102199997752905,0.8289747000671923,False,near-rndm,53,5,1,3.125,2,down,2,0
319,1,True,1.2596780000021681,800.0,50.0,33.0,5,False,2,down,0.16666666666666666,26,0.09234550001565367,0.45468179997988045,0.5470272999955341,0.8747844999888912,False,near-080,57,23,14,14.375,2,down,2,2
320,1,True,1.074395600007847,800.0,100.0,50.0,0,False,1,down,0.16666666666666666,22,0,0.3908445999259129,0.3908445999259129,0.5426889000227675,True,near-rnd2,44,1,1,0.625,1,down,4,0
321,3,True,1.2580847999779508,800.0,33.0,50.0,0,False,3,up,0.16666666666666666,37,0,0.6280276000034064,0.6280276000034064,0.9405631999252364,False,near-rnd3,58,1,0,0.625,1,up,4,0
322,2,True,1.25122440000996,800.0,800.0,50.0,0,False,0,up,0.16666666666666666,3,0,0.0944510999834165,0.0944510999834165,0.7458812000695616,False,near-rndm,54,1,0,0.625,2,up,1,0
323,2,True,1.1105574000393972,800.0,100.0,50.0,0,False,1,down,0.16666666666666666,22,0,0.39645810006186366,0.39645810006186366,0.6197304000379518,False,near-rnd2,45,2,1,1.25,1,down,4,0
324,2,True,1.4440513999434188,800.0,50.0,33.0,5,False,2,down,0.16666666666666666,26,0.09140430006664246,0.467206500004977,0.5586108000716195,0.565598800079897,False,near-080,58,24,14,15.0,2,down,2,2
