trial,primeIter,primeCorrect,primeTime,primeDepth,stimDepth,extraDepth,driveFrames,nearToFar,diopters,direction,size,intensity,extraLatency,mainLatency,totalLatency,responseTime,correct,caseLabel,caseTrial,trialsAtStep,stepCorrect,expected,w,direction,stepsize,stepChange
1,1,True,1.7733075999421999,800.0,50.0,33.0,0,False,2,start,0.16666666666666666,60,0,0.9950269999681041,0.9950269999681041,0.3247394000645727,True,near-000,1,1,1,0.625,0.5,start,16,0
2,3,True,1.08947700005956,800.0,50.0,33.0,10,False,2,start,0.16666666666666666,60,0.18273469991981983,1.0209329000208527,1.2036675999406725,0.05545460002031177,True,near-160,1,1,1,0.625,0.5,start,16,0
3,2,True,1.0014890999300405,800.0,100.0,50.0,0,False,1,start,0.16666666666666666,60,0,1.0164745999500155,1.0164745999500155,0.13543769996613264,True,near-rnd2,1,1,1,0.625,0.5,start,16,0
4,3,True,1.5391607000492513,800.0,33.0,50.0,0,False,3,start,0.16666666666666666,60,0,1.0002248000819236,1.0002248000819236,0.5255219000391662,True,near-rnd3,1,1,1,0.625,0.5,start,16,0
5,2,True,1.2280740999849513,800.0,800.0,50.0,0,False,0,start,0.16666666666666666,60,0,0.9970451999688521,0.9970451999688521,0.4782427999889478,True,near-rndm,1,1,1,0.625,0.5,start,16,0
6,2,True,0.9048802999313921,800.0,50.0,33.0,15,False,2,start,0.16666666666666666,60,0.25538839993532747,1.0226281000068411,1.2780164999421686,0.4353605000069365,True,near-240,1,1,1,0.625,0.5,start,16,0
7,3,True,1.1802740000421181,800.0,50.0,33.0,5,False,2,start,0.16666666666666666,60,0.11163169995415956,1.0260100000305101,1.1376416999846697,0.3478057000320405,True,near-080,1,1,1,0.625,0.5,start,16,0
8,1,True,1.2132340000243858,800.0,50.0,33.0,5,False,2,start,0.16666666666666666,44,0.08777640003245324,0.751479999977164,0.8392564000096172,0.5140982000157237,True,near-080,2,1,1,0.625,1.0,start,16,0
9,1,True,1.6067102000815794,800.0,50.0,33.0,0,False,2,start,0.16666666666666666,44,0,0.7412275999085978,0.7412275999085978,0.4773501999443397,True,near-000,2,1,1,0.625,1.0,start,16,0
10,1,True,1.959448500070721,800.0,100.0,50.0,0,False,1,start,0.16666666666666666,44,0,0.7525978999910876,0.7525978999910876,0.446529500070028,True,near-rnd2,2,1,1,0.625,1.0,start,16,0
11,2,True,1.4545669000362977,800.0,50.0,33.0,15,False,2,start,0.16666666666666666,44,0.2545729000121355,0.7664745999500155,1.021047499962151,0.36392299993894994,True,near-240,2,1,1,0.625,1.0,start,16,0
12,2,True,1.031307699973695,800.0,800.0,50.0,0,False,0,start,0.16666666666666666,44,0,0.7410705999936908,0.7410705999936908,0.47061680001206696,True,near-rndm,2,1,1,0.625,1.0,start,16,0
13,1,True,1.3320512999780476,800.0,33.0,50.0,0,False,3,start,0.16666666666666666,44,0,0.7298993000295013,0.7298993000295013,1.0599762999918312,True,near-rnd3,2,1,1,0.625,1.0,start,16,0
14,3,True,1.612813499988988,800.0,50.0,33.0,10,False,2,start,0.16666666666666666,44,0.18794049997814,0.7616523000178859,0.9495927999960259,0.43837729992810637,True,near-160,2,1,1,0.625,1.0,start,16,0
15,1,True,1.192839700030163,800.0,50.0,33.0,0,False,2,start,0.16666666666666666,28,0,0.4909103000536561,0.4909103000536561,0.8601853000000119,True,near-000,3,1,1,0.625,1.0,start,16,0
16,2,True,1.2215768999885768,800.0,50.0,33.0,15,False,2,start,0.16666666666666666,28,0.25191250001080334,0.5106859999941662,0.7625985000049695,0.4272548999870196,True,near-240,3,1,1,0.625,1.0,start,16,0
17,1,True,1.1007202999899164,800.0,100.0,50.0,0,False,1,start,0.16666666666666666,28,0,0.48948930006008595,0.48948930006008595,0.533670499920845,True,near-rnd2,3,1,1,0.625,1.0,start,16,0
18,1,True,1.304589599953033,800.0,50.0,33.0,10,False,2,start,0.16666666666666666,28,0.17108030000235885,0.4936929999385029,0.6647732999408618,0.5088835000060499,True,near-160,3,1,1,0.625,1.0,start,16,0
19,2,True,0.9985172000015154,800.0,33.0,50.0,0,False,3,start,0.16666666666666666,28,0,0.4762548999860883,0.4762548999860883,0.7669644999550655,True,near-rnd3,3,1,1,0.625,1.0,start,16,0
20,2,True,1.0421931999735534,800.0,50.0,33.0,5,False,2,start,0.16666666666666666,28,0.10025670006871223,0.4993928000330925,0.5996495001018047,0.4851388999959454,True,near-080,3,1,1,0.625,1.0,start,16,0
21,2,True,1.327208000002429,800.0,800.0,50.0,0,False,0,start,0.16666666666666666,28,0,0.48738479998428375,0.48738479998428375,0.8366821999661624,True,near-rndm,3,1,1,0.625,1.0,start,16,0
22,4,True,1.0422942000441253,800.0,100.0,50.0,0,False,1,start,0.16666666666666666,12,0,0.27064500004053116,0.27064500004053116,0.9753304000478238,False,near-rnd2,4,1,0,0.625,0.5,start,16,0
23,4,True,1.1193154000211507,800.0,50.0,33.0,0,False,2,start,0.16666666666666666,12,0,0.2507417000597343,0.2507417000597343,1.1553364999126643,True,near-000,4,1,1,0.625,0.5,start,16,0
24,3,True,0.9936548999976367,800.0,50.0,33.0,15,False,2,start,0.16666666666666666,12,0.2690465999767184,0.25625979993492365,0.5253063999116421,0.7747357999905944,True,near-240,4,1,1,0.625,0.5,start,16,0
25,1,True,2.62711850006599,800.0,33.0,50.0,0,False,3,start,0.16666666666666666,12,0,0.21838059998117387,0.21838059998117387,1.7051030999282375,False,near-rnd3,4,1,0,0.625,0.5,start,16,0
26,3,True,1.1089424999663606,800.0,50.0,33.0,5,False,2,start,0.16666666666666666,12,0.10921809996943921,0.2599828999955207,0.3692009999649599,1.510482299956493,True,near-080,4,1,1,0.625,0.5,start,16,0
27,2,True,1.4382829000242054,800.0,50.0,33.0,10,False,2,start,0.16666666666666666,12,0.17951849999371916,0.2434404999949038,0.42295899998862296,1.6598328000400215,False,near-160,4,1,0,0.625,0.5,start,16,0
28,2,True,0.9332747999578714,800.0,800.0,50.0,0,False,0,start,0.16666666666666666,12,0,0.22784259996842593,0.22784259996842593,1.1357161999912933,True,near-rndm,4,1,1,0.625,0.5,start,16,0
29,1,True,1.2428575999801978,800.0,50.0,33.0,15,False,2,start,0.16666666666666666,0,0.25194830005057156,0.040202800068072975,0.29215110011864454,1.8044629999203607,False,near-240,5,1,0,0.625,0.5,start,16,0
30,4,True,1.877646500011906,800.0,100.0,50.0,0,False,1,up,0.16666666666666666,20,0,0.38979269994888455,0.38979269994888455,0.7813113000011072,False,near-rnd2,5,1,0,0.625,0.5,up,8,0
31,2,True,0.8035229999804869,800.0,33.0,50.0,0,False,3,up,0.16666666666666666,20,0,0.3585720000555739,0.3585720000555739,1.5054783000377938,False,near-rnd3,5,1,0,0.625,0.5,up,8,0
32,1,True,1.454687500023283,800.0,800.0,50.0,0,False,0,start,0.16666666666666666,0,0,0.029269799939356744,0.029269799939356744,1.2178092000540346,False,near-rndm,5,1,0,0.625,0.5,start,16,0
33,2,True,1.0542198000475764,800.0,50.0,33.0,10,False,2,up,0.16666666666666666,20,0.17713119997642934,0.3747549999970943,0.5518861999735236,1.0699694999493659,True,near-160,5,1,1,0.625,0.5,up,8,0
34,2,True,1.092377100023441,800.0,50.0,33.0,5,False,2,start,0.16666666666666666,0,0.09260309999808669,0.05024020001292229,0.14284330001100898,2.1707890999969095,False,near-080,5,1,0,0.625,0.5,start,16,0
35,1,True,1.3234995999373496,800.0,50.0,33.0,0,False,2,start,0.16666666666666666,0,0,0.03306229994632304,0.03306229994632304,1.8076413000235334,False,near-000,5,1,0,0.625,0.5,start,16,0
36,3,True,2.4869721999857575,800.0,800.0,50.0,0,False,0,up,0.16666666666666666,8,0,0.17587839998304844,0.17587839998304844,0.9243935999693349,True,near-rndm,6,1,1,0.625,0.5,up,8,0
37,3,True,1.1515743000200018,800.0,50.0,33.0,5,False,2,up,0.16666666666666666,8,0.09835179999936372,0.19015719997696579,0.2885089999763295,1.1956889000721276,False,near-080,6,1,0,0.625,0.5,up,8,0
38,1,True,1.3637568999547511,800.0,50.0,33.0,10,False,2,up,0.16666666666666666,20,0.16922070004511625,0.3635608999757096,0.5327816000208259,1.1471680999966338,False,near-160,6,2,1,1.25,1,up,8,0
39,1,True,2.043019999982789,800.0,50.0,33.0,15,False,2,up,0.16666666666666666,8,0.2515606000088155,0.16727859992533922,0.41883919993415475,1.0154011000413448,True,near-240,6,1,1,0.625,0.5,up,8,0
40,2,True,1.578681500046514,800.0,50.0,33.0,0,False,2,up,0.16666666666666666,8,0,0.1871955000096932,0.1871955000096932,2.331141500035301,False,near-000,6,1,0,0.625,0.5,up,8,0
41,2,True,1.5378925999393687,800.0,100.0,50.0,0,False,1,up,0.16666666666666666,20,0,0.37824170000385493,0.37824170000385493,0.5452174000674859,True,near-rnd2,6,2,1,1.25,1,up,8,0
42,2,True,1.2280236999504268,800.0,33.0,50.0,0,False,3,up,0.16666666666666666,20,0,0.35848639998584986,0.35848639998584986,1.8957885999698192,False,near-rnd3,6,2,0,1.25,1,up,8,0
43,2,True,1.3789804000407457,800.0,50.0,33.0,0,False,2,up,0.16666666666666666,8,0,0.17382160003762692,0.17382160003762692,1.1453946999972686,False,near-000,7,2,0,1.25,1,up,8,0
44,2,True,1.49746550002601,800.0,50.0,33.0,15,False,2,up,0.16666666666666666,8,0.2506673000752926,0.18656359997112304,0.4372309000464156,0.6572554999729618,False,near-240,7,2,1,1.25,1,up,8,0
45,2,True,1.1685189999407157,800.0,100.0,50.0,0,False,1,up,0.16666666666666666,20,0,0.3696565000573173,0.3696565000573173,1.0379933998920023,False,near-rnd2,7,3,1,1.875,1,up,8,0
46,1,True,1.4285781000507995,800.0,33.0,50.0,0,False,3,up,0.16666666666666666,28,0,0.46891250007320195,0.46891250007320195,1.644719000090845,True,near-rnd3,7,1,1,0.625,1,up,8,0
47,3,True,1.4513647999847308,800.0,800.0,50.0,0,False,0,up,0.16666666666666666,8,0,0.186987700057216,0.186987700057216,1.2757415999658406,False,near-rndm,7,2,1,1.25,1,up,8,0
48,4,True,1.9020087999524549,800.0,50.0,33.0,5,False,2,up,0.16666666666666666,8,0.10540120000950992,0.20060639991424978,0.3060075999237597,1.787259400007315,False,near-080,7,2,0,1.25,1,up,8,0
49,3,True,1.7073699999600649,800.0,50.0,33.0,10,False,2,up,0.16666666666666666,20,0.18883360002655536,0.3902781999204308,0.5791117999469861,1.4514843999641016,False,near-160,7,3,1,1.875,1,up,8,0
50,3,True,0.8113976999884471,800.0,50.0,33.0,10,False,2,up,0.16666666666666666,20,0.18359820009209216,0.3776899999938905,0.5612882000859827,1.209029100020416,False,near-160,8,4,1,2.5,1,up,8,0
51,3,True,1.8778151998994872,800.0,800.0,50.0,0,False,0,up,0.16666666666666666,8,0,0.17713699990417808,0.17713699990417808,1.149931599968113,True,near-rndm,8,3,2,1.875,1,up,8,0
52,4,True,1.8336551999673247,800.0,33.0,50.0,0,False,3,up,0.16666666666666666,28,0,0.4952169000171125,0.4952169000171125,1.667533200001344,False,near-rnd3,8,2,1,1.25,1,up,8,0
53,3,True,1.0640406000893563,800.0,50.0,33.0,0,False,2,up,0.16666666666666666,16,0,0.3048665999667719,0.3048665999667719,1.054708099924028,True,near-000,8,1,1,0.625,1,up,8,0
54,3,True,2.075831599999219,800.0,50.0,33.0,5,False,2,up,0.16666666666666666,16,0.10376119997818023,0.3200359999900684,0.4237971999682486,0.9318793000420555,True,near-080,8,1,1,0.625,1,up,8,0
55,3,True,1.3580915000056848,800.0,50.0,33.0,15,False,2,up,0.16666666666666666,8,0.25988250004593283,0.19150239997543395,0.4513849000213668,1.0237241999711841,False,near-240,8,3,1,1.875,1,up,8,0
56,1,True,2.5718663999577984,800.0,100.0,50.0,0,False,1,up,0.16666666666666666,20,0,0.35414179996587336,0.35414179996587336,0.7104996000416577,True,near-rnd2,8,4,2,2.5,1,up,8,0
57,3,True,1.6913813001010567,800.0,50.0,33.0,5,False,2,up,0.16666666666666666,16,0.11037580005358905,0.313432399998419,0.42380820005200803,1.1308221999788657,False,near-080,9,2,1,1.25,1,up,8,0
58,4,True,2.2822160999057814,800.0,50.0,33.0,10,False,2,up,0.16666666666666666,28,0.18327310006134212,0.5312632999848574,0.7145364000461996,0.6023055000696331,True,near-160,9,1,1,0.625,1,up,8,0
59,1,True,2.456199700012803,800.0,33.0,50.0,0,False,3,up,0.16666666666666666,28,0,0.4676340000005439,0.4676340000005439,2.237148799933493,False,near-rnd3,9,3,1,1.875,1,up,8,0
60,1,True,2.3505477000726387,800.0,800.0,50.0,0,False,0,up,0.16666666666666666,8,0,0.1588700000429526,0.1588700000429526,1.0336209000088274,False,near-rndm,9,4,2,2.5,1,up,8,0
61,1,True,1.0118858999339864,800.0,100.0,50.0,0,False,1,up,0.16666666666666666,20,0,0.36666050006169826,0.36666050006169826,0.8025992000475526,True,near-rnd2,9,5,3,3.125,1,up,8,0
62,2,True,0.9277360999258235,800.0,50.0,33.0,0,False,2,up,0.16666666666666666,16,0,0.3071404999354854,0.3071404999354854,0.5478985999943689,False,near-000,9,2,1,1.25,1,up,8,0
63,2,True,2.8617250999668613,800.0,50.0,33.0,15,False,2,up,0.16666666666666666,8,0.25415429996792227,0.19215149991214275,0.446305799880065,0.4778635000111535,True,near-240,9,4,2,2.5,1,up,8,0
64,2,True,1.6995131999719888,800.0,50.0,33.0,5,False,2,up,0.16666666666666666,16,0.09597539994865656,0.3039782999549061,0.39995369990356266,0.8841298000188544,False,near-080,10,3,1,1.875,1,up,8,0
65,1,True,1.5159162000054494,800.0,100.0,50.0,0,False,1,up,0.16666666666666666,20,0,0.3637006999924779,0.3637006999924779,0.6174923999933526,False,near-rnd2,10,6,3,3.75,1,up,8,0
66,1,True,1.386492499965243,800.0,50.0,33.0,15,False,2,up,0.16666666666666666,8,0.25408900005277246,0.16875239997170866,0.4228414000244811,0.45317209989298135,False,near-240,10,5,2,3.125,1,up,8,0
67,2,True,0.9406593999592587,800.0,50.0,33.0,0,False,2,up,0.16666666666666666,16,0,0.31299670005682856,0.31299670005682856,0.6685001000296324,False,near-000,10,3,1,1.875,1,up,8,0
68,1,True,1.4539235000265762,800.0,50.0,33.0,10,False,2,up,0.16666666666666666,28,0.1704977999906987,0.49272870004642755,0.6632265000371262,0.4037334999302402,True,near-160,10,2,2,1.25,1,up,8,0
69,2,True,0.8073584999656305,800.0,33.0,50.0,0,False,3,up,0.16666666666666666,28,0,0.47479060001205653,0.47479060001205653,0.49277649994473904,False,near-rnd3,10,4,1,2.5,1,up,8,0
70,2,True,1.3057025000452995,800.0,800.0,50.0,0,False,0,up,0.16666666666666666,8,0,0.1622813999420032,0.1622813999420032,0.7755799000151455,False,near-rndm,10,5,2,3.125,1,up,8,0
71,3,True,0.914346499950625,800.0,100.0,50.0,0,False,1,up,0.16666666666666666,20,0,0.39550919993780553,0.39550919993780553,0.5672157000517473,True,near-rnd2,11,7,4,4.375,1,up,8,0
72,3,True,3.2047454999992624,800.0,50.0,33.0,10,False,2,up,0.16666666666666666,28,0.18532689998392016,0.5124898999929428,0.697816799976863,1.2075397999724373,False,near-160,11,3,2,1.875,1,up,8,0
73,1,True,1.817310499958694,800.0,50.0,33.0,15,False,2,up,0.16666666666666666,16,0.247474699979648,0.302502500009723,0.549977199989371,0.33193019998725504,False,near-240,11,1,0,0.625,1,up,8,0
74,2,True,1.0665353999938816,800.0,50.0,33.0,5,False,2,up,0.16666666666666666,16,0.09948949993122369,0.30285730003379285,0.40234679996501654,0.7545693999854848,False,near-080,11,4,1,2.5,1,up,8,0
75,2,True,1.0075534998904914,800.0,800.0,50.0,0,False,0,up,0.16666666666666666,16,0,0.29298749996814877,0.29298749996814877,0.7249305000295863,False,near-rndm,11,1,0,0.625,1,up,8,0
76,2,True,0.9320778000401333,800.0,33.0,50.0,0,False,3,up,0.16666666666666666,36,0,0.6079210999887437,0.6079210999887437,0.2210177999222651,False,near-rnd3,11,1,0,0.625,1,up,8,0
77,2,True,1.5171769999433309,800.0,50.0,33.0,0,False,2,up,0.16666666666666666,16,0,0.29743009991943836,0.29743009991943836,0.7367133999941871,False,near-000,11,4,1,2.5,1,up,8,0
78,3,True,0.8828108999878168,800.0,33.0,50.0,0,False,3,up,0.16666666666666666,36,0,0.6141869000857696,0.6141869000857696,0.15640199999324977,True,near-rnd3,12,2,1,1.25,1,up,8,0
79,2,True,1.4585723000345752,800.0,50.0,33.0,0,False,2,up,0.16666666666666666,24,0,0.43197949999012053,0.43197949999012053,0.4224193000700325,True,near-000,12,1,1,0.625,1,up,8,0
80,1,True,1.2128469999879599,800.0,800.0,50.0,0,False,0,up,0.16666666666666666,16,0,0.2859003000194207,0.2859003000194207,0.627033400000073,True,near-rndm,12,2,1,1.25,1,up,8,0
81,1,True,1.1117607000051066,800.0,50.0,33.0,15,False,2,up,0.16666666666666666,16,0.25028040003962815,0.2979832000564784,0.5482636000961065,0.19923150003887713,False,near-240,12,2,0,1.25,1,up,8,0
82,1,True,1.3292090999893844,800.0,50.0,33.0,10,False,2,up,0.16666666666666666,28,0.16795120004098862,0.49187339993659407,0.6598245999775827,1.193110499996692,False,near-160,12,4,2,2.5,1,up,8,0
83,1,True,2.028824199922383,800.0,50.0,33.0,5,False,2,up,0.16666666666666666,24,0.08905199996661395,0.43337119999341667,0.5224231999600306,0.3775415999116376,True,near-080,12,1,1,0.625,1,up,8,0
84,4,True,1.477595999953337,800.0,100.0,50.0,0,False,1,up,0.16666666666666666,20,0,0.3849302000598982,0.3849302000598982,0.6457105000736192,False,near-rnd2,12,8,4,5.0,1,up,8,0
85,4,True,1.3142298999009654,800.0,33.0,50.0,0,False,3,up,0.16666666666666666,36,0,0.6228548999642953,0.6228548999642953,0.0665718000382185,True,near-rnd3,13,3,2,1.875,1,up,8,0
86,3,True,1.0290501998970285,800.0,50.0,33.0,0,False,2,up,0.16666666666666666,24,0,0.46627400000579655,0.46627400000579655,0.5723253999603912,False,near-000,13,2,1,1.25,1,up,8,0
87,1,True,1.1740662000374869,800.0,50.0,33.0,10,False,2,up,0.16666666666666666,28,0.16872189997229725,0.49504629999864846,0.6637681999709457,0.3197091000620276,True,near-160,13,5,3,3.125,1,up,8,0
88,3,True,1.242031199974008,800.0,800.0,50.0,0,False,0,up,0.16666666666666666,16,0,0.29709040001034737,0.29709040001034737,0.5554028999758884,False,near-rndm,13,3,1,1.875,1,up,8,0
89,2,True,0.8662301000440493,800.0,50.0,33.0,5,False,2,up,0.16666666666666666,24,0.0968912000535056,0.4511549000162631,0.5480461000697687,0.5535173000534996,False,near-080,13,2,1,1.25,1,up,8,0
90,3,True,1.1334178999532014,800.0,50.0,33.0,15,False,2,up,0.16666666666666666,24,0.2704802000662312,0.4381474000401795,0.7086276001064107,0.10275260009802878,False,near-240,13,1,0,0.625,1,up,8,0
91,1,True,1.7369470000267029,800.0,100.0,50.0,0,False,1,up,0.16666666666666666,20,0,0.355096000013873,0.355096000013873,0.5883369999937713,True,near-rnd2,13,9,5,5.625,1,up,8,1
92,1,True,2.1788395999465138,800.0,33.0,50.0,0,False,3,up,0.16666666666666666,36,0,0.5982501999242231,0.5982501999242231,0.23906319995876402,False,near-rnd3,14,4,2,2.5,1,up,8,0
93,1,True,1.8226807999890298,800.0,50.0,33.0,10,False,2,up,0.16666666666666666,28,0.1663418000098318,0.4873156000394374,0.6536574000492692,0.49873490002937615,False,near-160,14,6,3,3.75,1,up,8,0
94,4,True,0.8170256000012159,800.0,50.0,33.0,15,False,2,up,0.16666666666666666,24,0.25760709994938225,0.5745110999559984,0.8321181999053806,0.40663310000672936,True,near-240,14,2,1,1.25,1,up,8,0
95,1,True,2.7224754999624565,800.0,50.0,33.0,0,False,2,up,0.16666666666666666,24,0,0.42414629994891584,0.42414629994891584,0.6819302999647334,True,near-000,14,3,2,1.875,1,up,8,0
96,1,True,0.9923122999025509,800.0,800.0,50.0,0,False,0,up,0.16666666666666666,16,0,0.2866787000093609,0.2866787000093609,0.893260599928908,False,near-rndm,14,4,1,2.5,1,up,8,0
97,3,True,1.1296523000346497,800.0,100.0,50.0,0,False,1,up,0.16666666666666666,20,0,0.3738049999810755,0.3738049999810755,0.8816776999738067,False,near-rnd2,14,10,5,6.25,1,up,8,1
98,1,True,1.152298399945721,800.0,50.0,33.0,5,False,2,up,0.16666666666666666,24,0.08867619989905506,0.42145530006382614,0.5101314999628812,0.6413559999782592,False,near-080,14,3,1,1.875,1,up,8,0
99,2,True,1.2635058000450954,800.0,50.0,33.0,0,False,2,up,0.16666666666666666,24,0,0.43428240006323904,0.43428240006323904,0.6235873999539763,True,near-000,15,4,3,2.5,1,up,8,0
100,2,True,0.9629616999300197,800.0,800.0,50.0,0,False,0,up,0.16666666666666666,24,0,0.43095539999194443,0.43095539999194443,0.8716702000238001,True,near-rndm,15,1,1,0.625,1,up,8,0
101,1,True,2.249474999960512,800.0,33.0,50.0,0,False,3,up,0.16666666666666666,36,0,0.5988843999803066,0.5988843999803066,2.387024899944663,False,near-rnd3,15,5,2,3.125,1,up,8,0
102,2,True,1.1816899999976158,800.0,100.0,50.0,0,False,1,up,0.16666666666666666,24,0,0.4341589999385178,0.4341589999385178,0.620056499959901,True,near-rnd2,15,1,1,0.625,1,up,4,0
103,2,True,1.4156860000221059,800.0,50.0,33.0,10,False,2,up,0.16666666666666666,28,0.17761180002707988,0.4984758000355214,0.6760876000626013,0.40100700000766665,True,near-160,15,7,4,4.375,1,up,8,0
104,1,True,1.5990947000682354,800.0,50.0,33.0,5,False,2,up,0.16666666666666666,24,0.091909300070256,0.4362633000127971,0.5281726000830531,0.4395278999581933,True,near-080,15,4,2,2.5,1,up,8,0
105,1,True,1.3609209000132978,800.0,50.0,33.0,15,False,2,up,0.16666666666666666,24,0.27639409992843866,0.43030419992282987,0.7066982998512685,0.11344310001004487,False,near-240,15,3,1,1.875,1,up,8,0
106,2,True,1.369682699907571,800.0,800.0,50.0,0,False,0,up,0.16666666666666666,24,0,0.431704799993895,0.431704799993895,0.4914526999928057,True,near-rndm,16,2,2,1.25,1,up,8,0
107,2,True,0.9199141000863165,800.0,100.0,50.0,0,False,1,up,0.16666666666666666,24,0,0.44480259995907545,0.44480259995907545,0.6657917998963967,True,near-rnd2,16,2,2,1.25,1,up,4,0
108,2,True,1.3053659000433981,800.0,50.0,33.0,15,False,2,up,0.16666666666666666,24,0.26235909992828965,0.43154839996714145,0.6939074998954311,0.06880869995802641,False,near-240,16,4,1,2.5,1,up,8,0
109,1,True,1.3894628999987617,800.0,33.0,50.0,0,False,3,up,0.16666666666666666,52,0,0.8540866000112146,0.8540866000112146,1.5484534999122843,False,near-rnd3,16,1,0,0.625,1,up,16,0
110,2,True,0.8845472000539303,800.0,50.0,33.0,10,False,2,up,0.16666666666666666,28,0.17855309997685254,0.5054815000621602,0.6840346000390127,0.4344326000427827,True,near-160,16,8,5,5.0,1,up,8,0
111,3,True,2.438278599991463,800.0,50.0,33.0,5,False,2,up,0.16666666666666666,24,0.09634300007019192,0.44774360000155866,0.5440866000717506,0.8304198000114411,True,near-080,16,5,3,3.125,1,up,8,0
112,1,True,1.7568089000415057,800.0,50.0,33.0,0,False,2,up,0.16666666666666666,24,0,0.4211244999896735,0.4211244999896735,0.5512739999685436,True,near-000,16,5,4,3.125,1,up,8,0
113,3,True,1.0022268999600783,800.0,33.0,50.0,0,False,3,up,0.16666666666666666,52,0,0.8750344999134541,0.8750344999134541,0.9503460000269115,False,near-rnd3,17,2,0,1.25,1.0,up,16,0
114,2,True,1.5969144999980927,800.0,800.0,50.0,0,False,0,up,0.16666666666666666,24,0,0.42903830006252974,0.42903830006252974,0.49349180003628135,True,near-rndm,17,3,3,1.875,1,up,8,0
115,1,True,1.4512001000111923,800.0,100.0,50.0,0,False,1,up,0.16666666666666666,24,0,0.4253662000410259,0.4253662000410259,0.6283956000115722,True,near-rnd2,17,3,3,1.875,1,up,4,0
116,4,True,1.1549429000588134,800.0,50.0,33.0,0,False,2,up,0.16666666666666666,24,0,0.4462032000301406,0.4462032000301406,0.5362956000026315,False,near-000,17,6,4,3.75,1,up,8,0
117,1,True,1.612394499941729,800.0,50.0,33.0,15,False,2,up,0.16666666666666666,40,0.24970670009497553,0.7595499999588355,1.009256700053811,0.6202719999710098,True,near-240,17,1,1,0.625,1,up,16,0
118,3,True,1.6432950999587774,800.0,50.0,33.0,5,False,2,up,0.16666666666666666,24,0.10831899999175221,0.445585000095889,0.5539040000876412,0.457453400013037,False,near-080,17,6,3,3.75,1,up,8,0
119,1,True,1.0710497999098152,800.0,50.0,33.0,10,False,2,up,0.16666666666666666,28,0.17238759994506836,0.48982020001858473,0.6622077999636531,0.5495375000173226,True,near-160,17,9,6,5.625,1,up,8,1
120,4,True,1.132327999919653,800.0,800.0,50.0,0,False,0,down,0.16666666666666666,20,0,0.37417749990709126,0.37417749990709126,0.5914007000392303,True,near-rndm,18,1,1,0.625,1,down,4,0
121,3,True,0.9844516000011936,800.0,50.0,33.0,0,False,2,up,0.16666666666666666,24,0,0.4403487000381574,0.4403487000381574,0.9393383999122307,False,near-000,18,7,4,4.375,1,up,8,0
122,3,True,0.9510776000097394,800.0,50.0,33.0,10,False,2,up,0.16666666666666666,28,0.18811660003848374,0.5077663999982178,0.6958830000367016,0.4432106999447569,True,near-160,18,10,7,6.25,1,up,8,1
123,4,True,1.534929999965243,800.0,100.0,50.0,0,False,1,down,0.16666666666666666,22,0,0.5033110999502242,0.5033110999502242,0.5199965999927372,True,near-rnd2,18,1,1,0.625,1,down,2,0
124,2,True,0.8283680001040921,800.0,50.0,33.0,15,False,2,up,0.16666666666666666,40,0.25213140004780143,0.6978495999937877,0.9499810000415891,0.12943229998927563,True,near-240,18,2,2,1.25,1.0,up,16,0
125,1,True,1.886822700034827,800.0,33.0,50.0,0,False,3,up,0.16666666666666666,68,0,1.1064905000384897,1.1064905000384897,0.40799320000223815,True,near-rnd3,18,1,1,0.625,1.0,up,16,0
126,3,True,0.9763973000226542,800.0,50.0,33.0,5,False,2,up,0.16666666666666666,24,0.1005160000640899,0.4514768000226468,0.5519928000867367,0.6657419999828562,True,near-080,18,7,4,4.375,1,up,8,0
127,2,True,1.0696134000318125,800.0,50.0,33.0,15,False,2,up,0.16666666666666666,40,0.25354669999796897,0.6941342999925837,0.9476809999905527,0.3714629999594763,True,near-240,19,3,3,1.875,1.0,up,16,0
128,1,True,1.0269449999323115,800.0,800.0,50.0,0,False,0,down,0.16666666666666666,20,0,0.3506107000866905,0.3506107000866905,2.367809599963948,False,near-rndm,19,2,1,1.25,1,down,4,0
129,2,True,3.3745321999303997,800.0,50.0,33.0,5,False,2,up,0.16666666666666666,24,0.0964442000258714,0.4271280000684783,0.5235722000943497,0.5235896999947727,True,near-080,19,8,5,5.0,1,up,8,0
130,1,True,1.186747599975206,800.0,33.0,50.0,0,False,3,up,0.16666666666666666,68,0,1.107168500078842,1.107168500078842,0.35122470010537654,True,near-rnd3,19,2,2,1.25,1.0,up,16,0
131,3,True,1.2549694000044838,800.0,50.0,33.0,10,False,2,up,0.16666666666666666,28,0.1787802999606356,0.5065844999626279,0.6853647999232635,0.3614837999921292,True,near-160,19,11,8,6.875,1,up,8,1
132,1,True,1.153212200035341,800.0,100.0,50.0,0,False,1,down,0.16666666666666666,22,0,0.39717080001719296,0.39717080001719296,0.4505576000083238,True,near-rnd2,19,2,2,1.25,2,down,2,0
133,2,True,1.065154799958691,800.0,50.0,33.0,0,False,2,up,0.16666666666666666,24,0,0.4376337999710813,0.4376337999710813,2.0461671999655664,False,near-000,19,8,4,5.0,1,up,8,0
134,1,True,1.813200299977325,800.0,50.0,33.0,15,False,2,down,0.16666666666666666,32,0.2513433999847621,0.5488669000333175,0.8002103000180796,0.30159590009134263,True,near-240,20,1,1,0.625,0.5,down,8,0
135,2,True,1.0376054999651387,800.0,33.0,50.0,0,False,3,up,0.16666666666666666,68,0,1.1194828000152484,1.1194828000152484,0.3804829999571666,True,near-rnd3,20,3,3,1.875,1.0,up,16,0
136,2,True,1.0245857000118122,800.0,50.0,33.0,10,False,2,down,0.16666666666666666,26,0.3033603000221774,0.45855179999489337,0.7619121000170708,0.3940857000416145,True,near-160,20,1,1,0.625,1,down,2,0
137,1,True,1.3511541000334546,800.0,50.0,33.0,0,False,2,up,0.16666666666666666,24,0,0.42259390000253916,0.42259390000253916,1.2621848999988288,True,near-000,20,9,5,5.625,1,up,8,1
138,1,True,1.6331270999507979,800.0,100.0,50.0,0,False,1,down,0.16666666666666666,22,0,0.38842769991606474,0.38842769991606474,0.4858993999660015,True,near-rnd2,20,3,3,1.875,2,down,2,0
139,2,True,0.8975780999753624,800.0,800.0,50.0,0,False,0,down,0.16666666666666666,20,0,0.358551700017415,0.358551700017415,0.46356369997374713,True,near-rndm,20,3,2,1.875,1,down,4,0
140,1,True,2.0871219999389723,800.0,50.0,33.0,5,False,2,up,0.16666666666666666,24,0.08829980005975813,0.42808540002442896,0.5163852000841871,0.4100586000131443,True,near-080,20,9,6,5.625,1,up,8,1
141,2,True,0.8028473999584094,800.0,50.0,33.0,15,False,2,down,0.16666666666666666,32,0.2588516999967396,0.563575700041838,0.8224274000385776,0.4689354000147432,True,near-240,21,2,2,1.25,1,down,8,0
142,3,True,1.2166425000177696,800.0,33.0,50.0,0,False,3,down,0.16666666666666666,60,0,1.0061804000288248,1.0061804000288248,0.5207562999567017,True,near-rnd3,21,1,1,0.625,0.5,down,8,0
143,2,True,1.1695088999113068,800.0,800.0,50.0,0,False,0,down,0.16666666666666666,20,0,0.35681889997795224,0.35681889997795224,0.5503245999570936,True,near-rndm,21,4,3,2.5,1,down,4,0
144,2,True,1.0064066000049934,800.0,100.0,50.0,0,False,1,down,0.16666666666666666,22,0,0.3973934000823647,0.3973934000823647,0.5633515000808984,True,near-rnd2,21,4,4,2.5,2,down,2,0
145,2,True,0.8974857999710366,800.0,50.0,33.0,10,False,2,down,0.16666666666666666,26,0.1777177999028936,0.48087369999848306,0.6585914999013767,0.2665394999785349,True,near-160,21,2,2,1.25,2,down,2,0
146,1,True,1.822844099951908,800.0,50.0,33.0,5,False,2,up,0.16666666666666666,24,0.08946140005718917,0.43174739996902645,0.5212088000262156,1.2300274999579415,True,near-080,21,10,7,6.25,1,up,8,1
147,1,True,1.0913230000296608,800.0,50.0,33.0,0,False,2,up,0.16666666666666666,24,0,0.41723250003997236,0.41723250003997236,0.697318600025028,False,near-000,21,10,5,6.25,1,up,8,1
148,1,True,2.163282099994831,800.0,800.0,50.0,0,False,0,down,0.16666666666666666,20,0,0.34678740007802844,0.34678740007802844,0.5001622000709176,True,near-rndm,22,5,4,3.125,1,down,4,0
149,2,True,1.8097323999973014,800.0,50.0,33.0,10,False,2,down,0.16666666666666666,26,0.17090240004472435,0.4763173999963328,0.6472198000410572,0.5680207000114024,False,near-160,22,3,2,1.875,2,down,2,0
150,1,True,0.9807526000076905,800.0,50.0,33.0,0,False,2,up,0.16666666666666666,32,0,0.5441833999939263,0.5441833999939263,0.33191030006855726,True,near-000,22,1,1,0.625,1,up,8,0
151,1,True,1.305171100073494,800.0,50.0,33.0,5,False,2,up,0.16666666666666666,24,0.08939879992976785,0.43329640000592917,0.522695199935697,0.5008708999957889,True,near-080,22,11,8,6.875,1,up,8,1
152,1,True,1.2439387999475002,800.0,100.0,50.0,0,False,1,down,0.16666666666666666,22,0,0.3958844000007957,0.3958844000007957,0.4900936000049114,True,near-rnd2,22,5,5,3.125,2,down,2,0
153,2,True,1.0912331999279559,800.0,50.0,33.0,15,False,2,down,0.16666666666666666,32,0.2568500000052154,0.5602192999795079,0.8170692999847233,0.27868580003269017,True,near-240,22,3,3,1.875,1,down,8,0
154,2,True,0.8578227000543848,800.0,33.0,50.0,0,False,3,down,0.16666666666666666,60,0,0.9949796999571845,0.9949796999571845,2.1714518999215215,True,near-rnd3,22,2,2,1.25,1,down,8,0
155,2,True,1.3122181999497116,800.0,800.0,50.0,0,False,0,down,0.16666666666666666,20,0,0.36444849998224527,0.36444849998224527,0.35200919990893453,True,near-rndm,23,6,5,3.75,1,down,4,0
156,2,True,1.2637352000456303,800.0,100.0,50.0,0,False,1,down,0.16666666666666666,22,0,0.5376707999967039,0.5376707999967039,0.3431832999922335,True,near-rnd2,23,6,6,3.75,2,down,2,0
157,2,True,0.9144738001050428,800.0,50.0,33.0,15,False,2,down,0.16666666666666666,24,0.2602778999134898,0.44126089999917895,0.7015387999126688,0.5020641000010073,True,near-240,23,1,1,0.625,1,down,8,0
158,1,True,1.540836100000888,800.0,50.0,33.0,0,False,2,up,0.16666666666666666,32,0,0.5529317000182346,0.5529317000182346,0.7075210000621155,True,near-000,23,2,2,1.25,1,up,8,0
159,3,True,1.0283509999280795,800.0,33.0,50.0,0,False,3,down,0.16666666666666666,60,0,0.998980600037612,0.998980600037612,0.7740817999001592,False,near-rnd3,23,3,2,1.875,1,down,8,0
160,1,True,2.929337800014764,800.0,50.0,33.0,10,False,2,down,0.16666666666666666,26,0.1680523999966681,0.5797636000206694,0.7478160000173375,0.6337247000774369,True,near-160,23,4,3,2.5,2,down,2,0
161,1,True,0.9433245999971405,800.0,50.0,33.0,5,False,2,down,0.16666666666666666,22,0.08963379997294396,0.4053708999417722,0.4950046999147162,0.552933800034225,True,near-080,23,1,1,0.625,1,down,2,0
162,2,True,1.182858599931933,800.0,50.0,33.0,10,False,2,down,0.16666666666666666,26,0.17908329993952066,0.4600258000427857,0.6391090999823064,0.4121323999715969,True,near-160,24,5,4,3.125,2,down,2,0
163,4,True,1.639523099991493,800.0,50.0,33.0,15,False,2,down,0.16666666666666666,24,0.2602985999546945,0.4529808999504894,0.7132794999051839,0.4173956000013277,True,near-240,24,2,2,1.25,1,down,8,0
164,1,True,1.0692366000730544,800.0,800.0,50.0,0,False,0,down,0.16666666666666666,16,0,0.28500030003488064,0.28500030003488064,0.8739181000273675,False,near-rndm,24,1,0,0.625,1,down,4,0
165,1,True,1.3787449999945238,800.0,50.0,33.0,5,False,2,down,0.16666666666666666,22,0.09183790010865778,0.3894242999376729,0.4812622000463307,0.7126100000459701,True,near-080,24,2,2,1.25,2,down,2,0
166,1,True,1.3753720000386238,800.0,100.0,50.0,0,False,1,down,0.16666666666666666,20,0,0.36054090003017336,0.36054090003017336,0.6730776999611408,False,near-rnd2,24,1,0,0.625,2,down,2,0
167,3,True,1.1069521999452263,800.0,33.0,50.0,0,False,3,down,0.16666666666666666,60,0,1.0047550000017509,1.0047550000017509,0.3941287000197917,True,near-rnd3,24,4,3,2.5,1,down,8,0
168,3,True,1.8947128999279812,800.0,50.0,33.0,0,False,2,up,0.16666666666666666,32,0,0.5834679000545293,0.5834679000545293,0.5244965999154374,True,near-000,24,3,3,1.875,1,up,8,0
169,3,True,1.0543478999752551,800.0,50.0,33.0,10,False,2,down,0.16666666666666666,26,0.1821707000490278,0.47027669998351485,0.6524474000325426,0.28877149999607354,True,near-160,25,6,5,3.75,2,down,2,0
170,1,True,1.6091703000711277,800.0,50.0,33.0,5,False,2,down,0.16666666666666666,22,0.09467829996719956,0.40016459999606013,0.4948428999632597,0.6894661000696942,False,near-080,25,3,2,1.875,2,down,2,0
171,4,True,1.2561577999731526,800.0,800.0,50.0,0,False,0,down,0.16666666666666666,16,0,0.44210940005723387,0.44210940005723387,0.4371249999385327,False,near-rndm,25,2,0,1.25,1,down,4,0
172,2,True,1.078950499999337,800.0,50.0,33.0,0,False,2,down,0.16666666666666666,28,0,0.5016241999110207,0.5016241999110207,0.6489152000285685,False,near-000,25,1,0,0.625,1,down,4,0
173,4,True,1.6756443999474868,800.0,33.0,50.0,0,False,3,down,0.16666666666666666,60,0,1.0205475999973714,1.0205475999973714,0.5641677000094205,True,near-rnd3,25,5,4,3.125,1,down,8,0
174,2,True,2.0890241999877617,800.0,100.0,50.0,0,False,1,down,0.16666666666666666,20,0,0.36750189994927496,0.36750189994927496,0.462362700025551,True,near-rnd2,25,2,1,1.25,2,down,2,0
175,1,True,2.114705799962394,800.0,50.0,33.0,15,False,2,down,0.16666666666666666,24,0.24850440002046525,0.42068940005265176,0.669193800073117,0.7628896000096574,False,near-240,25,3,2,1.875,1,down,8,0
176,3,True,0.9869395999703556,800.0,50.0,33.0,5,False,2,down,0.16666666666666666,22,0.10686619998887181,0.4125438000774011,0.5194100000662729,0.4915733999805525,False,near-080,26,4,2,2.5,2,down,2,0
177,1,True,0.9049790999852121,800.0,100.0,50.0,0,False,1,down,0.16666666666666666,20,0,0.3616343999747187,0.3616343999747187,0.6462116999318823,False,near-rnd2,26,3,1,1.875,2,down,2,0
178,3,True,2.924405699945055,800.0,800.0,50.0,0,False,0,up,0.16666666666666666,18,0,0.3437551000388339,0.3437551000388339,0.5269000999396667,True,near-rndm,26,1,1,0.625,1,up,2,0
179,4,True,1.0704746999545023,800.0,50.0,33.0,10,False,2,down,0.16666666666666666,26,0.19442469999194145,0.47201330005191267,0.6664380000438541,0.33468910004012287,True,near-160,26,7,6,4.375,2,down,2,0
180,2,True,1.2841428999090567,800.0,33.0,50.0,0,False,3,down,0.16666666666666666,60,0,0.9919075999641791,0.9919075999641791,0.40477109991479665,True,near-rnd3,26,6,5,3.75,1,down,8,0
181,1,True,1.2085046999854967,800.0,50.0,33.0,0,False,2,down,0.16666666666666666,28,0,0.48153490002732724,0.48153490002732724,0.8697851999895647,False,near-000,26,2,0,1.25,1,down,4,0
182,4,True,1.122016999986954,800.0,50.0,33.0,15,False,2,down,0.16666666666666666,24,0.28030240000225604,0.4496313000563532,0.7299337000586092,0.35386029991786927,True,near-240,26,4,3,2.5,1,down,8,0
183,2,True,1.3527380999876186,800.0,50.0,33.0,5,False,2,down,0.16666666666666666,22,0.09336669999174774,0.4998440000927076,0.5932107000844553,0.4140447999816388,True,near-080,27,5,3,3.125,2,down,2,0
184,1,True,1.2713798999320716,800.0,50.0,33.0,15,False,2,down,0.16666666666666666,24,0.2503728000447154,0.43347320007160306,0.6838460001163185,0.6208999000955373,True,near-240,27,5,4,3.125,1,down,8,0
185,1,True,0.9943410000996664,800.0,33.0,50.0,0,False,3,down,0.16666666666666666,52,0,0.9047466999618337,0.9047466999618337,0.7147796000353992,True,near-rnd3,27,1,1,0.625,1,down,8,0
186,1,True,1.1328209000639617,800.0,800.0,50.0,0,False,0,up,0.16666666666666666,18,0,0.31809890002477914,0.31809890002477914,2.075798899983056,False,near-rndm,27,2,1,1.25,2,up,2,0
187,1,True,1.3152067000046372,800.0,50.0,33.0,10,False,2,down,0.16666666666666666,26,0.1727372999303043,0.4582412999588996,0.6309785998892039,0.45440429996233433,True,near-160,27,8,7,5.0,2,down,2,0
188,2,True,1.1930069000227377,800.0,100.0,50.0,0,False,1,down,0.16666666666666666,20,0,0.3721009000437334,0.3721009000437334,0.5667736000614241,True,near-rnd2,27,4,2,2.5,2,down,2,0
189,3,True,1.7499683999922127,800.0,50.0,33.0,0,False,2,up,0.16666666666666666,30,0,0.6360224999953061,0.6360224999953061,0.30709789996035397,True,near-000,27,1,1,0.625,1,up,2,0
190,1,True,1.2718250999459997,800.0,100.0,50.0,0,False,1,down,0.16666666666666666,20,0,0.36413970007561147,0.36413970007561147,0.5452116000233218,True,near-rnd2,28,5,3,3.125,2,down,2,0
191,1,True,1.053897500038147,800.0,50.0,33.0,15,False,2,down,0.16666666666666666,24,0.24990370008163154,0.41913150006439537,0.6690352001460269,0.2910507000051439,True,near-240,28,6,5,3.75,1,down,8,0
192,3,True,1.128888399922289,800.0,33.0,50.0,0,False,3,down,0.16666666666666666,52,0,0.8787778000114486,0.8787778000114486,0.25215559999924153,False,near-rnd3,28,2,1,1.25,1,down,8,0
193,1,True,1.268927099998109,800.0,50.0,33.0,0,False,2,up,0.16666666666666666,30,0,0.5149674999993294,0.5149674999993294,0.5315003999276087,True,near-000,28,2,2,1.25,2,up,2,0
194,2,True,1.2105644000694156,800.0,50.0,33.0,5,False,2,down,0.16666666666666666,22,0.09575209999457002,0.4017803999595344,0.4975324999541044,0.567773099988699,True,near-080,28,6,4,3.75,2,down,2,0
195,4,True,1.3302834999049082,800.0,50.0,33.0,10,False,2,down,0.16666666666666666,26,0.1998493999708444,0.4802872999571264,0.6801366999279708,0.7482124000089243,False,near-160,28,9,7,5.625,2,down,2,1
196,1,True,3.409404900041409,800.0,800.0,50.0,0,False,0,up,0.16666666666666666,18,0,0.3120822000782937,0.3120822000782937,1.0830881000729278,False,near-rndm,28,3,1,1.875,2,up,2,0
197,3,True,2.537612900021486,800.0,50.0,33.0,15,False,2,down,0.16666666666666666,16,0.2552160000195727,0.31140220002271235,0.566618200042285,0.5711580000352114,False,near-240,29,1,0,0.625,1,down,8,0
198,4,True,1.8227364000631496,800.0,50.0,33.0,5,False,2,down,0.16666666666666666,22,0.10261129995342344,0.4188579999608919,0.5214692999143153,0.5965191000141203,True,near-080,29,7,5,4.375,2,down,2,0
199,1,True,1.8406302999937907,800.0,100.0,50.0,0,False,1,down,0.16666666666666666,20,0,0.36276449996512383,0.36276449996512383,0.7874195999465883,False,near-rnd2,29,6,3,3.75,2,down,2,0
200,4,True,1.9921739000128582,800.0,50.0,33.0,10,False,2,down,0.16666666666666666,26,0.18066090007778257,0.48169390007387847,0.662354800151661,0.23016070004086941,True,near-160,29,10,8,6.25,2,down,2,1
201,1,True,1.52714769996237,800.0,800.0,50.0,0,False,0,up,0.16666666666666666,18,0,0.3180362000130117,0.3180362000130117,0.48067990003619343,True,near-rndm,29,4,2,2.5,2,up,2,0
202,1,True,2.910355999949388,800.0,33.0,50.0,0,False,3,down,0.16666666666666666,52,0,0.8548445999622345,0.8548445999622345,0.6482861000113189,True,near-rnd3,29,3,2,1.875,1,down,8,0
203,3,True,1.1227933999616653,800.0,50.0,33.0,0,False,2,up,0.16666666666666666,30,0,0.5357053999323398,0.5357053999323398,0.5088719000341371,False,near-000,29,3,2,1.875,2,up,2,0
204,2,True,1.0070562999462709,800.0,33.0,50.0,0,False,3,down,0.16666666666666666,52,0,0.8606882999883965,0.8606882999883965,0.35289119998924434,True,near-rnd3,30,4,3,2.5,1,down,8,0
205,2,True,1.2592689000302926,800.0,50.0,33.0,0,False,2,up,0.16666666666666666,30,0,0.5266770999878645,0.5266770999878645,0.6318225999129936,False,near-000,30,4,2,2.5,2,up,2,0
206,1,True,1.2110834999475628,800.0,50.0,33.0,10,False,2,down,0.16666666666666666,26,0.16798509994987398,0.4744054999900982,0.6423905999399722,0.2594980000285432,True,near-160,30,11,9,6.875,2,down,2,1
207,2,True,0.8736068999860436,800.0,50.0,33.0,5,False,2,down,0.16666666666666666,22,0.0953577000182122,0.4026111999992281,0.4979689000174403,0.5076791000319645,True,near-080,30,8,6,5.0,2,down,2,0
208,3,True,1.4684715999756008,800.0,50.0,33.0,15,False,2,down,0.16666666666666666,16,0.25782219995744526,0.3102598999394104,0.5680820998968557,0.37519419996533543,False,near-240,30,2,0,1.25,1,down,8,0
209,2,True,0.8966182000003755,800.0,800.0,50.0,0,False,0,up,0.16666666666666666,18,0,0.3222073999932036,0.3222073999932036,0.4887537000468001,True,near-rndm,30,5,3,3.125,2,up,2,0
210,1,True,1.0987588000716642,800.0,100.0,50.0,0,False,1,down,0.16666666666666666,20,0,0.35429010004736483,0.35429010004736483,0.6445855000056326,False,near-rnd2,30,7,3,4.375,2,down,2,0
211,1,True,0.8905711000552401,800.0,50.0,33.0,10,False,2,down,0.16666666666666666,25,0.16566239995881915,0.4372158000478521,0.6028782000066712,0.4272024999372661,True,near-160,31,1,1,0.625,2,down,1,0
212,2,True,1.450849200016819,800.0,50.0,33.0,0,False,2,up,0.16666666666666666,30,0,0.5233722999691963,0.5233722999691963,0.32553250005003065,False,near-000,31,5,2,3.125,2,up,2,0
213,3,True,0.985744500067085,800.0,50.0,33.0,5,False,2,down,0.16666666666666666,22,0.10846529994159937,0.41614780004601926,0.5246130999876186,0.35283819993492216,False,near-080,31,9,6,5.625,2,down,2,1
214,3,True,1.1523293000645936,800.0,800.0,50.0,0,False,0,up,0.16666666666666666,18,0,0.34545579995028675,0.34545579995028675,0.44940839998889714,True,near-rndm,31,6,4,3.75,2,up,2,0
215,1,True,0.9763583999592811,800.0,33.0,50.0,0,False,3,down,0.16666666666666666,52,0,0.8522725999355316,0.8522725999355316,0.40347520005889237,False,near-rnd3,31,5,3,3.125,1,down,8,0
216,3,True,1.9394489000551403,800.0,100.0,50.0,0,False,1,down,0.16666666666666666,20,0,0.375051699928008,0.375051699928008,0.6732160999672487,True,near-rnd2,31,8,4,5.0,2,down,2,0
217,1,True,1.1538795999949798,800.0,50.0,33.0,15,False,2,up,0.16666666666666666,20,0.2534065000945702,0.3629457999486476,0.6163523000432178,0.2700782000320032,True,near-240,31,1,1,0.625,1,up,4,0
218,2,True,0.8820312999887392,800.0,50.0,33.0,0,False,2,up,0.16666666666666666,30,0,0.5227681000251323,0.5227681000251323,0.4918446000665426,True,near-000,32,6,3,3.75,2,up,2,0
219,3,True,1.685296699986793,800.0,800.0,50.0,0,False,0,up,0.16666666666666666,18,0,0.34077880007680506,0.34077880007680506,0.48913480003830045,True,near-rndm,32,7,5,4.375,2,up,2,0
220,3,True,1.7958297999575734,800.0,50.0,33.0,15,False,2,up,0.16666666666666666,20,0.2599142000544816,0.3868050000164658,0.6467192000709474,0.2799012999748811,True,near-240,32,2,2,1.25,1,up,4,0
221,1,True,1.323967200005427,800.0,50.0,33.0,5,False,2,down,0.16666666666666666,22,0.09158790006767958,0.40348939993418753,0.4950773000018671,0.40679729997646064,True,near-080,32,10,7,6.25,2,down,2,1
222,3,True,1.010605499963276,800.0,33.0,50.0,0,False,3,down,0.16666666666666666,52,0,0.8685597999719903,0.8685597999719903,0.9761721000541002,False,near-rnd3,32,6,3,3.75,1,down,8,0
223,3,True,1.1402130998903885,800.0,100.0,50.0,0,False,1,down,0.16666666666666666,20,0,0.3909115999704227,0.3909115999704227,0.5852752999635413,True,near-rnd2,32,9,5,5.625,2,down,2,1
224,3,True,0.864152800058946,800.0,50.0,33.0,10,False,2,down,0.16666666666666666,25,0.17771029996220022,0.45139319996815175,0.629103499930352,0.2161680000135675,True,near-160,32,2,2,1.25,2,down,1,0
225,4,True,0.8891958000604063,800.0,50.0,33.0,10,False,2,down,0.16666666666666666,25,0.19273529993370175,0.47986439999658614,0.6725996999302879,0.33415000000968575,True,near-160,33,3,3,1.875,2,down,1,0
226,2,True,0.9818201999878511,800.0,50.0,33.0,0,False,2,up,0.16666666666666666,30,0,0.537388400058262,0.537388400058262,0.4456550000468269,True,near-000,33,7,4,4.375,2,up,2,0
227,2,True,1.0926371000241488,800.0,100.0,50.0,0,False,1,down,0.16666666666666666,20,0,0.37009810004383326,0.37009810004383326,0.5799224000656977,True,near-rnd2,33,10,6,6.25,2,down,2,1
228,2,True,1.095520899980329,800.0,33.0,50.0,0,False,3,down,0.16666666666666666,52,0,0.863162099965848,0.863162099965848,0.7093183000106364,False,near-rnd3,33,7,3,4.375,1,down,8,0
229,2,True,0.9040496000088751,800.0,800.0,50.0,0,False,0,up,0.16666666666666666,18,0,0.33088779996614903,0.33088779996614903,0.8471465000184253,False,near-rndm,33,8,5,5.0,2,up,2,0
230,4,True,0.9910973999649286,800.0,50.0,33.0,15,False,2,up,0.16666666666666666,20,0.2639981999527663,0.4506634999997914,0.7146616999525577,0.38155659998301417,True,near-240,33,3,3,1.875,1,up,4,0
231,2,True,0.8259413000196218,800.0,50.0,33.0,5,False,2,down,0.16666666666666666,22,0.0971871999790892,0.40874839993193746,0.5059355999110267,1.1855853999732062,True,near-080,33,11,8,6.875,2,down,2,1
232,1,True,1.4659887000452727,800.0,50.0,33.0,10,False,2,down,0.16666666666666666,25,0.17143970006145537,0.44911080005113035,0.6205505001125857,0.48527270008344203,True,near-160,34,4,4,2.5,2,down,1,0
233,2,True,0.9975527999922633,800.0,50.0,33.0,0,False,2,up,0.16666666666666666,30,0,0.5422374000772834,0.5422374000772834,0.26986120000947267,False,near-000,34,8,4,5.0,2,up,2,0
234,2,True,1.057845199946314,800.0,100.0,50.0,0,False,1,down,0.16666666666666666,20,0,0.3783554000547156,0.3783554000547156,0.504584800102748,True,near-rnd2,34,11,7,6.875,2,down,2,1
235,1,True,1.0870878000278026,800.0,50.0,33.0,15,False,2,down,0.16666666666666666,18,0.24809569993522018,0.32563849992584437,0.5737341998610646,0.3524406999349594,True,near-240,34,1,1,0.625,1,down,2,0
236,3,True,1.0539920999435708,800.0,33.0,50.0,0,False,3,up,0.16666666666666666,56,0,1.0395618999609724,1.0395618999609724,2.281483000027947,False,near-rnd3,34,1,0,0.625,1,up,4,0
237,1,True,2.3815541999647394,800.0,800.0,50.0,0,False,0,up,0.16666666666666666,18,0,0.3186726999701932,0.3186726999701932,1.1374655000399798,False,near-rndm,34,9,5,5.625,2,up,2,1
238,1,True,1.983691000030376,800.0,50.0,33.0,5,False,2,down,0.16666666666666666,22,0.09290799999143928,0.3910685000009835,0.48397649999242276,0.8180179999908432,True,near-080,34,12,9,7.5,2,down,2,1
239,1,True,1.3104208998847753,800.0,50.0,33.0,15,False,2,down,0.16666666666666666,18,0.2513459000037983,0.3286709999665618,0.5800168999703601,0.5552238000091165,False,near-240,35,2,1,1.25,2,down,2,0
240,1,True,1.7914000999880955,800.0,50.0,33.0,5,False,2,down,0.16666666666666666,22,0.08966039994265884,0.39081719995010644,0.4804775998927653,0.5381518999347463,True,near-080,35,13,10,8.125,2,down,2,1
241,2,True,1.123132099979557,800.0,100.0,50.0,0,False,1,down,0.16666666666666666,20,0,0.37378000002354383,0.37378000002354383,0.5529814000474289,True,near-rnd2,35,12,8,7.5,2,down,2,1
242,2,True,1.0862323000328615,800.0,50.0,33.0,10,False,2,down,0.16666666666666666,25,0.17696019995491952,0.45697329996619374,0.6339334999211133,0.5524826999753714,True,near-160,35,5,5,3.125,2,down,1,0
243,4,True,0.8614481999538839,800.0,50.0,33.0,0,False,2,up,0.16666666666666666,30,0,0.5580604999559,0.5580604999559,0.3307277000276372,True,near-000,35,9,5,5.625,2,up,2,1
244,1,True,1.3230725000612438,800.0,33.0,50.0,0,False,3,up,0.16666666666666666,56,0,0.9200600000331178,0.9200600000331178,1.9824388000415638,True,near-rnd3,35,2,1,1.25,1,up,4,0
245,2,True,0.8466693999944255,800.0,800.0,50.0,0,False,0,up,0.16666666666666666,18,0,0.3266099999891594,0.3266099999891594,0.7793335999595001,False,near-rndm,35,10,5,6.25,2,up,2,1
246,2,True,0.9065881000133231,800.0,800.0,50.0,0,False,0,up,0.16666666666666666,18,0,0.3276792000979185,0.3276792000979185,0.7773461000761017,False,near-rndm,36,11,5,6.875,2,up,2,1
247,1,True,0.9075638999929652,800.0,50.0,33.0,10,False,2,down,0.16666666666666666,25,0.17281040002126247,0.45228560001123697,0.6250960000324994,0.5855419000145048,True,near-160,36,6,6,3.75,2,down,1,0
248,1,True,0.8807331999996677,800.0,33.0,50.0,0,False,3,up,0.16666666666666666,56,0,0.9218026000307873,0.9218026000307873,0.5916786999441683,False,near-rnd3,36,3,1,1.875,1,up,4,0
249,2,True,1.2662620999617502,800.0,50.0,33.0,0,False,2,up,0.16666666666666666,30,0,0.5329494000179693,0.5329494000179693,0.44316170003730804,True,near-000,36,10,6,6.25,2,up,2,1
250,1,True,0.8838977999985218,800.0,100.0,50.0,0,False,1,down,0.16666666666666666,20,0,0.3675529999891296,0.3675529999891296,0.4480829000240192,True,near-rnd2,36,13,9,8.125,2,down,2,1
251,3,True,1.1337590999901295,800.0,50.0,33.0,5,False,2,down,0.16666666666666666,22,0.09957409999333322,0.40945539996027946,0.5090294999536127,0.8493604999966919,True,near-080,36,14,11,8.75,2,down,2,1
252,2,True,1.3644283999456093,800.0,50.0,33.0,15,False,2,down,0.16666666666666666,18,0.2553479999769479,0.3500517999054864,0.6053997998824343,0.33898960007354617,False,near-240,36,3,1,1.875,2,down,2,0
253,1,True,0.9458765999879688,800.0,50.0,33.0,10,False,2,down,0.16666666666666666,24,0.17063710000365973,0.4370605000294745,0.6076976000331342,0.46523930004332215,True,near-160,37,1,1,0.625,2,down,1,0
254,3,True,1.0133223000448197,800.0,50.0,33.0,5,False,2,down,0.16666666666666666,21,0.10652679996564984,0.40711749996989965,0.5136442999355495,0.4601425000000745,False,near-080,37,1,0,0.625,2,down,1,0
255,2,True,0.9707214999943972,800.0,800.0,50.0,0,False,0,up,0.16666666666666666,18,0,0.3283985999878496,0.3283985999878496,0.628316100104712,True,near-rndm,37,12,6,7.5,2,up,2,1
256,2,True,0.8578264999669045,800.0,50.0,33.0,15,False,2,down,0.16666666666666666,18,0.2531583000672981,0.34421070001553744,0.5973690000828356,0.43262530001811683,True,near-240,37,4,2,2.5,2,down,2,0
257,1,True,1.6151365999830887,800.0,50.0,33.0,0,False,2,up,0.16666666666666666,30,0,0.5213493999326602,0.5213493999326602,0.6175353999715298,True,near-000,37,11,7,6.875,2,up,2,1
258,2,True,0.8478033000137657,800.0,33.0,50.0,0,False,3,up,0.16666666666666666,56,0,0.9251252999529243,0.9251252999529243,0.3895757000427693,False,near-rnd3,37,4,1,2.5,1,up,4,0
259,2,True,0.9729492999613285,800.0,100.0,50.0,0,False,1,down,0.16666666666666666,20,0,0.36834360007196665,0.36834360007196665,0.6171307000331581,False,near-rnd2,37,14,9,8.75,2,down,2,1
260,1,True,1.1065175000112504,800.0,100.0,50.0,0,False,1,down,0.16666666666666666,20,0,0.3679322999669239,0.3679322999669239,0.5389979000901803,True,near-rnd2,38,15,10,9.375,2,down,2,1
261,4,True,1.3432049000402912,800.0,33.0,50.0,0,False,3,up,0.16666666666666666,60,0,1.0285994000732899,1.0285994000732899,0.959949400043115,False,near-rnd3,38,1,0,0.625,1,up,4,0
262,3,True,1.5453149999957532,800.0,50.0,33.0,15,False,2,down,0.16666666666666666,18,0.2650590999983251,0.36180039995815605,0.6268594999564812,0.5641705000307411,True,near-240,38,5,3,3.125,2,down,2,0
263,2,True,1.1125954000744969,800.0,50.0,33.0,5,False,2,down,0.16666666666666666,21,0.09590660000685602,0.3918004999868572,0.4877070999937132,0.55310240003746,False,near-080,38,2,0,1.25,2,down,1,0
264,1,True,1.606967799947597,800.0,800.0,50.0,0,False,0,up,0.16666666666666666,18,0,0.31889859994407743,0.31889859994407743,0.7693499999586493,False,near-rndm,38,13,6,8.125,2,up,2,1
265,3,True,1.1866743999999017,800.0,50.0,33.0,0,False,2,up,0.16666666666666666,30,0,0.5301231000339612,0.5301231000339612,0.3739709999645129,True,near-000,38,12,8,7.5,2,up,2,1
266,2,True,0.8047473999904469,800.0,50.0,33.0,10,False,2,down,0.16666666666666666,24,0.3113349999766797,0.4382398999296129,0.7495748999062926,0.33968640002422035,False,near-160,38,2,1,1.25,2,down,1,0
267,4,True,0.8481724000303075,800.0,50.0,33.0,15,False,2,down,0.16666666666666666,18,0.2676608000183478,0.35608000005595386,0.6237408000743017,0.7448226999258623,False,near-240,39,6,3,3.75,2,down,2,0
268,1,True,0.9452058000024408,800.0,800.0,50.0,0,False,0,up,0.16666666666666666,19,0,0.33740030007902533,0.33740030007902533,0.9056813000934198,False,near-rndm,39,1,0,0.625,2,up,1,0
269,1,True,1.3472506999969482,800.0,33.0,50.0,0,False,3,up,0.16666666666666666,60,0,0.9811623999848962,0.9811623999848962,0.8536058999598026,True,near-rnd3,39,2,1,1.25,1,up,4,0
270,1,True,1.849654300021939,800.0,50.0,33.0,0,False,2,up,0.16666666666666666,30,0,0.5178521999623626,0.5178521999623626,0.5033811000175774,True,near-000,39,13,9,8.125,2,up,2,1
271,1,True,1.0456728000426665,800.0,100.0,50.0,0,False,1,down,0.16666666666666666,20,0,0.35593730001710355,0.35593730001710355,0.6736627999925986,True,near-rnd2,39,16,11,10.0,2,down,2,1
272,3,True,0.8131619000341743,800.0,50.0,33.0,10,False,2,down,0.16666666666666666,24,0.17796120001003146,0.43763139995280653,0.615592599962838,0.3993796999566257,True,near-160,39,3,2,1.875,2,down,1,0
273,1,True,1.2467113999882713,800.0,50.0,33.0,5,False,2,down,0.16666666666666666,21,0.08991009998135269,0.3844704000512138,0.4743805000325665,0.4738540999824181,False,near-080,39,3,0,1.875,2,down,1,0
274,2,True,1.0818235999904573,800.0,50.0,33.0,15,False,2,down,0.16666666666666666,18,0.26079850003588945,0.3347105000866577,0.5955090001225471,0.4787019999930635,False,near-240,40,7,3,4.375,2,down,2,0
275,2,True,1.7009172999532893,800.0,100.0,50.0,0,False,1,down,0.16666666666666666,20,0,0.3762021999573335,0.3762021999573335,0.6381794000044465,True,near-rnd2,40,17,12,10.625,2,down,2,2
276,3,True,1.060629100073129,800.0,800.0,50.0,0,False,0,up,0.16666666666666666,19,0,0.3664453999372199,0.3664453999372199,0.675967299961485,True,near-rndm,40,2,1,1.25,2,up,1,0
277,3,True,2.3817472000373527,800.0,50.0,33.0,0,False,2,up,0.16666666666666666,30,0,0.6245694999815896,0.6245694999815896,0.5976001999806613,False,near-000,40,14,9,8.75,2,up,2,1
278,2,True,0.96393599989824,800.0,50.0,33.0,5,False,2,down,0.16666666666666666,21,0.09309710003435612,0.3943518999731168,0.48744900000747293,0.47695429995656013,True,near-080,40,4,1,2.5,2,down,1,0
279,1,True,1.4734059000620618,800.0,50.0,33.0,10,False,2,down,0.16666666666666666,24,0.17291950003709644,0.418601099983789,0.5915206000208855,0.43447249999735504,True,near-160,40,4,3,2.5,2,down,1,0
280,2,True,1.1129657999845222,800.0,33.0,50.0,0,False,3,up,0.16666666666666666,60,0,0.9930402000900358,0.9930402000900358,0.514631099998951,False,near-rnd3,40,3,1,1.875,1,up,4,0
281,3,True,1.3865449000149965,800.0,100.0,50.0,0,False,1,down,0.16666666666666666,20,0,0.3784330999478698,0.3784330999478698,0.453127000015229,True,near-rnd2,41,18,13,11.25,2,down,2,2
282,2,True,0.9432301999768242,800.0,33.0,50.0,0,False,3,up,0.16666666666666666,60,0,0.998442400014028,0.998442400014028,0.4359089999925345,True,near-rnd3,41,4,2,2.5,1,up,4,0
283,3,True,1.0972680000122637,800.0,800.0,50.0,0,False,0,up,0.16666666666666666,19,0,0.3579426999203861,0.3579426999203861,0.5600722000235692,True,near-rndm,41,3,2,1.875,2,up,1,0
284,1,True,1.2626770000206307,800.0,50.0,33.0,0,False,2,up,0.16666666666666666,30,0,0.5169764999300241,0.5169764999300241,0.46229870000388473,True,near-000,41,15,10,9.375,2,up,2,1
285,1,True,1.4573266999796033,800.0,50.0,33.0,15,False,2,down,0.16666666666666666,18,0.25206400000024587,0.3249029000289738,0.5769669000292197,0.4568132000276819,True,near-240,41,8,4,5.0,2,down,2,0
286,1,True,1.7162366999546066,800.0,50.0,33.0,5,False,2,down,0.16666666666666666,21,0.089938799967058,0.38371880003251135,0.47365759999956936,1.1217038000468165,False,near-080,41,5,1,3.125,2,down,1,0
287,2,True,1.7399035999551415,800.0,50.0,33.0,10,False,2,down,0.16666666666666666,24,0.17367200006265193,0.436605800059624,0.610277800122276,0.5499680999200791,True,near-160,41,5,4,3.125,2,down,1,0
288,1,True,1.2719815000891685,800.0,33.0,50.0,0,False,3,up,0.16666666666666666,60,0,0.9795108999824151,0.9795108999824151,0.8645026999292895,False,near-rnd3,42,5,2,3.125,1,up,4,0
289,3,True,0.9923280000220984,800.0,50.0,33.0,10,False,2,down,0.16666666666666666,24,0.18938959995284677,0.4457828999729827,0.6351724999258295,0.42695110000204295,True,near-160,42,6,5,3.75,2,down,1,0
290,3,True,0.9409154000459239,800.0,50.0,33.0,15,False,2,down,0.16666666666666666,18,0.2575228998903185,0.3472693999065086,0.6047922997968271,0.8087435000343248,True,near-240,42,9,5,5.625,2,down,2,1
291,1,True,0.9047243000240996,800.0,50.0,33.0,0,False,2,up,0.16666666666666666,30,0,0.5195416000206023,0.5195416000206023,1.1789619999472052,True,near-000,42,16,11,10.0,2,up,2,1
292,1,True,1.3822724999627098,800.0,800.0,50.0,0,False,0,up,0.16666666666666666,19,0,0.3323748999973759,0.3323748999973759,0.48832290002610534,True,near-rndm,42,4,3,2.5,2,up,1,0
293,2,True,0.9245340999914333,800.0,100.0,50.0,0,False,1,down,0.16666666666666666,20,0,0.3712030000751838,0.3712030000751838,0.6730404000263661,True,near-rnd2,42,19,14,11.875,2,down,2,2
294,2,True,1.197208400000818,800.0,50.0,33.0,5,False,2,up,0.16666666666666666,22,0.09735629998613149,0.4029156999895349,0.5002719999756664,0.5579071999527514,True,near-080,42,1,1,0.625,2,up,1,0
295,1,True,1.5237321999156848,800.0,100.0,50.0,0,False,1,down,0.16666666666666666,19,0,0.349106700043194,0.349106700043194,0.5241783000528812,True,near-rnd2,43,1,1,0.625,2,down,1,0
296,1,True,0.9771855000872165,800.0,800.0,50.0,0,False,0,up,0.16666666666666666,19,0,0.3275154000148177,0.3275154000148177,0.6183911999687552,True,near-rndm,43,5,4,3.125,2,up,1,0
297,1,True,1.070512600010261,800.0,50.0,33.0,15,False,2,down,0.16666666666666666,18,0.25059360009618104,0.33389309991616756,0.5844867000123486,0.7012469000183046,True,near-240,43,10,6,6.25,2,down,2,1
298,3,True,0.7822949999244884,800.0,50.0,33.0,5,False,2,up,0.16666666666666666,22,0.10554439993575215,0.41821209993213415,0.5237564998678863,0.3913374999538064,False,near-080,43,2,1,1.25,3,up,1,0
299,1,True,1.2714037999976426,800.0,50.0,33.0,0,False,2,up,0.16666666666666666,30,0,0.5229855000507087,0.5229855000507087,0.32943500007968396,False,near-000,43,17,11,10.625,2,up,2,2
300,2,True,0.9080525999888778,800.0,33.0,50.0,0,False,3,up,0.16666666666666666,64,0,1.0563949999632314,1.0563949999632314,0.669092099997215,False,near-rnd3,43,1,0,0.625,1,up,4,0
301,3,True,1.0017158999107778,800.0,50.0,33.0,10,False,2,down,0.16666666666666666,24,0.19039869995322078,0.4518734000157565,0.6422720999689773,0.41191679995972663,False,near-160,43,7,5,4.375,2,down,1,0
302,1,True,1.7477876999182627,800.0,100.0,50.0,0,False,1,down,0.16666666666666666,19,0,0.3373518999433145,0.3373518999433145,0.5067804999416694,True,near-rnd2,44,2,2,1.25,3,down,1,0
303,1,True,0.9796347999945283,800.0,50.0,33.0,15,False,2,down,0.16666666666666666,18,0.2493822000687942,0.3327769000316039,0.5821591001003981,0.34397189994342625,True,near-240,44,11,7,6.875,2,down,2,1
304,1,True,1.0152282000053674,800.0,33.0,50.0,0,False,3,up,0.16666666666666666,64,0,1.047066600061953,1.047066600061953,0.5675355000421405,False,near-rnd3,44,2,0,1.25,1,up,4,0
305,4,True,0.996569300070405,800.0,50.0,33.0,10,False,2,down,0.16666666666666666,24,0.19924380001612008,0.45207969995681196,0.651323499972932,0.33464170002844185,True,near-160,44,8,6,5.0,2,down,1,0
306,2,True,0.8832814999623224,800.0,50.0,33.0,0,False,2,up,0.16666666666666666,30,0,0.530323600047268,0.530323600047268,0.5477836999343708,True,near-000,44,18,12,11.25,2,up,2,2
307,2,True,1.2362335999496281,800.0,800.0,50.0,0,False,0,up,0.16666666666666666,19,0,0.3403557001147419,0.3403557001147419,0.6894809000659734,False,near-rndm,44,6,4,3.75,2,up,1,0
308,4,True,1.0346999999601394,800.0,50.0,33.0,5,False,2,up,0.16666666666666666,22,0.09853159997146577,0.42130010004621,0.5198317000176758,0.4599554999731481,True,near-080,44,3,2,1.875,3,up,1,0
309,1,True,1.8582374000689015,800.0,100.0,50.0,0,False,1,down,0.16666666666666666,19,0,0.35125039995182306,0.35125039995182306,0.5821021000156179,True,near-rnd2,45,3,3,1.875,3,down,1,0
310,2,True,1.3573072999715805,800.0,50.0,33.0,5,False,2,up,0.16666666666666666,22,0.09346799994818866,0.39994040003512055,0.4934083999833092,0.7433272999478504,False,near-080,45,4,2,2.5,3,up,1,0
311,1,True,0.914595999987796,800.0,50.0,33.0,15,False,2,down,0.16666666666666666,18,0.2501347999786958,0.3291448999661952,0.579279699944891,0.46246559999417514,True,near-240,45,12,8,7.5,2,down,2,1
312,1,True,1.1366404999280348,800.0,800.0,50.0,0,False,0,up,0.16666666666666666,19,0,0.3650164999999106,0.3650164999999106,0.7122666999930516,False,near-rndm,45,7,4,4.375,2,up,1,0
313,2,True,0.8099264000775293,800.0,33.0,50.0,0,False,3,up,0.16666666666666666,68,0,1.119485899922438,1.119485899922438,0.352430299972184,True,near-rnd3,45,1,1,0.625,1,up,4,0
314,2,True,1.8364454000256956,800.0,50.0,33.0,0,False,2,up,0.16666666666666666,30,0,0.5200830000685528,0.5200830000685528,0.4684048000490293,True,near-000,45,19,13,11.875,2,up,2,2
315,3,True,0.7875326999928802,800.0,50.0,33.0,10,False,2,down,0.16666666666666666,24,0.1771689000306651,0.4503484999295324,0.6275173999601975,0.24721649999264628,True,near-160,45,9,7,5.625,2,down,1,1
316,3,True,1.2513372000539675,800.0,33.0,50.0,0,False,3,up,0.16666666666666666,68,0,1.1392594000790268,1.1392594000790268,0.24677520000841469,False,near-rnd3,46,2,1,1.25,1,up,4,0
317,2,True,1.2692409999435768,800.0,50.0,33.0,10,False,2,down,0.16666666666666666,24,0.17440060002263635,0.4459009999409318,0.6203015999635682,0.495439299964346,True,near-160,46,10,8,6.25,2,down,1,1
318,2,True,1.417646500049159,800.0,50.0,33.0,5,False,2,up,0.16666666666666666,22,0.10226989991497248,0.39951559994369745,0.5017854998586699,0.6023944999324158,True,near-080,46,5,3,3.125,3,up,1,0
319,1,True,1.1521118000382558,800.0,50.0,33.0,0,False,2,up,0.16666666666666666,30,0,0.5183270999696106,0.5183270999696106,0.6247532999841496,True,near-000,46,20,14,12.5,2,up,2,2
320,2,True,0.7454160000197589,800.0,800.0,50.0,0,False,0,up,0.16666666666666666,19,0,0.34697079996112734,0.34697079996112734,0.6228135999990627,True,near-rndm,46,8,5,5.0,2,up,1,0
321,3,True,0.9149812000105157,800.0,100.0,50.0,0,False,1,down,0.16666666666666666,19,0,0.3700012000044808,0.3700012000044808,0.5863431999459863,True,near-rnd2,46,4,4,2.5,3,down,1,0
322,4,True,1.095310500008054,800.0,50.0,33.0,15,False,2,down,0.16666666666666666,18,0.2624043000396341,0.3476717999437824,0.6100760999834165,0.4557181999552995,True,near-240,46,13,9,8.125,2,down,2,1
323,1,True,0.9843113000970334,800.0,800.0,50.0,0,False,0,up,0.16666666666666666,19,0,0.3343641998944804,0.3343641998944804,0.5642340000486001,False,near-rndm,47,9,5,5.625,2,up,1,1
324,1,True,0.7350594999734312,800.0,100.0,50.0,0,False,1,down,0.16666666666666666,19,0,0.35314550006296486,0.35314550006296486,0.780304400017485,False,near-rnd2,47,5,4,3.125,3,down,1,0
325,2,True,1.006300100008957,800.0,33.0,50.0,0,False,3,up,0.16666666666666666,68,0,1.1200757999904454,1.1200757999904454,0.23555530002340674,False,near-rnd3,47,3,1,1.875,1,up,4,0
326,1,True,1.0296297000022605,800.0,50.0,33.0,10,False,2,down,0.16666666666666666,24,0.16797519999090582,0.4305673000635579,0.5985425000544637,0.4595548000652343,True,near-160,47,11,9,6.875,2,down,1,1
327,1,True,0.9514118999941275,800.0,50.0,33.0,5,False,2,up,0.16666666666666666,22,0.09104180010035634,0.39778449991717935,0.4888263000175357,0.46095790003892034,True,near-080,47,6,4,3.75,3,up,1,0
328,2,True,0.9431907000252977,800.0,50.0,33.0,15,False,2,down,0.16666666666666666,18,0.25364520004950464,0.34480469999834895,0.5984499000478536,0.5151166999712586,False,near-240,47,14,9,8.75,2,down,2,1
329,3,True,1.3451436000177637,800.0,50.0,33.0,0,False,2,up,0.16666666666666666,30,0,0.5399398000445217,0.5399398000445217,0.45107000006828457,True,near-000,47,21,15,13.125,2,up,2,2
330,3,True,1.1628288999199867,800.0,50.0,33.0,0,False,2,up,0.16666666666666666,30,0,0.5395867000333965,0.5395867000333965,0.40168979996815324,True,near-000,48,22,16,13.75,2,up,2,2
331,3,True,0.9376569000305608,800.0,50.0,33.0,15,False,2,down,0.16666666666666666,18,0.26196509995497763,0.3471658000489697,0.6091309000039473,0.360551799996756,True,near-240,48,15,10,9.375,2,down,2,1
332,2,True,1.0610585999675095,800.0,33.0,50.0,0,False,3,up,0.16666666666666666,68,0,1.120739399921149,1.120739399921149,0.5418581999838352,True,near-rnd3,48,4,2,2.5,1,up,4,0
333,1,True,1.5575535000534728,800.0,50.0,33.0,10,False,2,down,0.16666666666666666,23,0.16906869993545115,0.41240550007205456,0.5814742000075057,0.42564460006542504,True,near-160,48,1,1,0.625,2,down,1,0
334,3,True,1.0760741999838501,800.0,800.0,50.0,0,False,0,up,0.16666666666666666,19,0,0.35525870008859783,0.35525870008859783,0.373291700030677,True,near-rndm,48,10,6,6.25,2,up,1,1
335,2,True,1.015187699929811,800.0,100.0,50.0,0,False,1,down,0.16666666666666666,19,0,0.3616417999146506,0.3616417999146506,0.7554156000260264,True,near-rnd2,48,6,5,3.75,3,down,1,0
336,1,True,0.9847305000294,800.0,50.0,33.0,5,False,2,up,0.16666666666666666,22,0.0913879000581801,0.3905544000444934,0.48194230010267347,0.5809215999906883,True,near-080,48,7,5,4.375,3,up,1,0
337,1,True,1.3120491999434307,800.0,50.0,33.0,5,False,2,up,0.16666666666666666,22,0.08705619990359992,0.3980622000526637,0.4851183999562636,0.4719168998999521,True,near-080,49,8,6,5.0,3,up,1,0
338,2,True,0.7927624000003561,800.0,100.0,50.0,0,False,1,down,0.16666666666666666,19,0,0.35674670001026243,0.35674670001026243,0.4182818999979645,True,near-rnd2,49,7,6,4.375,3,down,1,0
339,3,True,1.0721790000097826,800.0,50.0,33.0,15,False,2,down,0.16666666666666666,18,0.26180169999133795,0.3521703000878915,0.6139720000792295,0.2940439999802038,False,near-240,49,16,10,10.0,2,down,2,1
340,1,True,2.932651299983263,800.0,800.0,50.0,0,False,0,up,0.16666666666666666,19,0,0.33469879999756813,0.33469879999756813,0.48916590004228055,True,near-rndm,49,11,7,6.875,2,up,1,1
341,1,True,1.0126199000515044,800.0,33.0,50.0,0,False,3,up,0.16666666666666666,68,0,1.1113623999990523,1.1113623999990523,0.49560060002841055,True,near-rnd3,49,5,3,3.125,1,up,4,0
342,3,True,1.2476789999054745,800.0,50.0,33.0,10,False,2,down,0.16666666666666666,23,0.18294439988676459,0.42927960003726184,0.6122239999240264,0.5207689999369904,True,near-160,49,2,2,1.25,2,down,1,0
343,2,True,1.0378247000044212,800.0,33.0,50.0,0,False,3,up,0.16666666666666666,68,0,1.1155365000013262,1.1155365000013262,0.5900891000637785,True,near-rnd3,50,6,4,3.75,1,up,4,0
344,2,True,1.22210640006233,800.0,100.0,50.0,0,False,1,down,0.16666666666666666,19,0,0.3600370000349358,0.3600370000349358,1.0160099000204355,False,near-rnd2,50,8,6,5.0,3,down,1,0
345,2,True,1.0471810000017285,800.0,50.0,33.0,15,False,2,down,0.16666666666666666,18,0.25248679996002465,0.34282400005031377,0.5953108000103384,0.5484948999946937,True,near-240,50,17,11,10.625,2,down,2,2
346,2,True,0.9349938000086695,800.0,800.0,50.0,0,False,0,up,0.16666666666666666,19,0,0.34161790006328374,0.34161790006328374,0.5138428999343887,True,near-rndm,50,12,8,7.5,2,up,1,1
347,1,True,0.9926254000747576,800.0,50.0,33.0,10,False,2,down,0.16666666666666666,23,0.1697905999608338,0.4093845998868346,0.5791751998476684,0.6561836999608204,True,near-160,50,3,3,1.875,2,down,1,0
348,3,True,1.3691111000953242,800.0,800.0,50.0,0,False,0,up,0.16666666666666666,19,0,0.35326080000959337,0.35326080000959337,0.491055199992843,True,near-rndm,51,13,9,8.125,2,up,1,1
349,2,True,0.8392428000224754,800.0,33.0,50.0,0,False,3,up,0.16666666666666666,68,0,1.1220971000147983,1.1220971000147983,0.3557434999383986,True,near-rnd3,51,7,5,4.375,1,up,4,0
350,2,True,1.2623443000484258,800.0,50.0,33.0,10,False,2,down,0.16666666666666666,23,0.18002039997372776,0.4215703000081703,0.6015906999818981,0.428919899975881,True,near-160,51,4,4,2.5,2,down,1,0
351,3,True,1.1664652000181377,800.0,50.0,33.0,15,False,2,down,0.16666666666666666,18,0.2637776000192389,0.3503204999724403,0.6140980999916792,0.5540073999436572,False,near-240,51,18,11,11.25,2,down,2,2
352,3,True,0.8134345000144094,800.0,33.0,50.0,0,False,3,up,0.16666666666666666,68,0,1.1348304999992251,1.1348304999992251,0.22998069995082915,True,near-rnd3,52,8,6,5.0,1,up,4,0
353,1,True,1.1617618999443948,800.0,50.0,33.0,10,False,2,down,0.16666666666666666,23,0.17541619995608926,0.4074200000613928,0.582836200017482,0.5506327000912279,True,near-160,52,5,5,3.125,2,down,1,0
354,3,True,1.0051218000007793,800.0,50.0,33.0,15,False,2,down,0.16666666666666666,18,0.26785770000424236,0.3390269000083208,0.6068846000125632,0.4069385000038892,True,near-240,52,19,12,11.875,2,down,2,2
355,3,True,0.9357198999496177,800.0,800.0,50.0,0,False,0,up,0.16666666666666666,19,0,0.48479449993465096,0.48479449993465096,0.48173230001702905,True,near-rndm,52,14,10,8.75,2,up,1,1
356,2,True,0.883559999987483,800.0,33.0,50.0,0,False,3,up,0.16666666666666666,68,0,1.1155335999792442,1.1155335999792442,0.27801310003269464,True,near-rnd3,53,9,7,5.625,1,up,4,1
357,4,True,0.8736674999818206,800.0,50.0,33.0,10,False,2,down,0.16666666666666666,23,0.18631870008539408,0.42671879997942597,0.61303750006482,0.2970703999744728,True,near-160,53,6,6,3.75,2,down,1,0
358,1,True,1.1406670999713242,800.0,800.0,50.0,0,False,0,up,0.16666666666666666,19,0,0.3356651000212878,0.3356651000212878,0.5764142000116408,True,near-rndm,53,15,11,9.375,2,up,1,1
359,3,True,1.898756799986586,800.0,50.0,33.0,15,False,2,down,0.16666666666666666,18,0.25434350001160055,0.3467616999987513,0.6011052000103518,0.5105821000179276,True,near-240,53,20,13,12.5,2,down,2,2
360,3,True,1.1276439999928698,800.0,800.0,50.0,0,False,0,up,0.16666666666666666,19,0,0.3493652999168262,0.3493652999168262,0.4226936000632122,True,near-rndm,54,16,12,10.0,2,up,1,1
361,3,True,0.9950411000754684,800.0,50.0,33.0,15,False,2,down,0.16666666666666666,18,0.2615005999105051,0.357057600049302,0.6185581999598071,0.45465700002387166,True,near-240,54,21,14,13.125,2,down,2,2
362,1,True,0.9527484000427648,800.0,33.0,50.0,0,False,3,down,0.16666666666666666,67,0,1.094394600018859,1.094394600018859,0.11952509998809546,True,near-rnd3,54,1,1,0.625,1,down,1,0
363,2,True,0.8588547999970615,800.0,50.0,33.0,10,False,2,down,0.16666666666666666,21,0.17528830002993345,0.38933839998207986,0.5646267000120133,0.5022602000972256,True,near-160,54,1,1,0.625,2,down,2,0
364,1,True,2.387069599935785,800.0,50.0,33.0,15,False,2,down,0.16666666666666666,18,0.24751629994716495,0.39678169996477664,0.6442979999119416,0.6040443999227136,True,near-240,55,22,15,13.75,2,down,2,2
365,2,True,1.6738163999980316,800.0,50.0,33.0,10,False,2,down,0.16666666666666666,21,0.17455870006233454,0.3833678000373766,0.5579265000997111,0.34717999992426485,True,near-160,55,2,2,1.25,2,down,2,0
366,2,True,0.8842188999988139,800.0,33.0,50.0,0,False,3,down,0.16666666666666666,67,0,1.1032887001056224,1.1032887001056224,0.4840099000139162,True,near-rnd3,55,2,2,1.25,2,down,1,0
367,4,True,0.8522802999941632,800.0,50.0,33.0,15,False,2,down,0.16666666666666666,18,0.4022117001004517,0.36795620003249496,0.7701679001329467,0.7819904999341816,True,near-240,56,23,16,14.375,2,down,2,2
368,2,True,1.18893860001117,800.0,50.0,33.0,10,False,2,down,0.16666666666666666,21,0.1756465999642387,0.48569949995726347,0.6613460999215022,0.9180270000360906,True,near-160,56,3,3,1.875,2,down,2,0
369,1,True,2.4151956000132486,800.0,33.0,50.0,0,False,3,down,0.16666666666666666,67,0,1.093174900044687,1.093174900044687,0.6615653999615461,True,near-rnd3,56,3,3,1.875,2,down,1,0
370,1,True,1.947502600029111,800.0,33.0,50.0,0,False,3,down,0.16666666666666666,67,0,1.09045750007499,1.09045750007499,0.44255780009552836,True,near-rnd3,57,4,4,2.5,2,down,1,0
371,3,True,1.3655604000668973,800.0,50.0,33.0,15,False,2,down,0.16666666666666666,18,0.26203119999263436,0.35791390005033463,0.619945100042969,0.6149457000428811,True,near-240,57,24,17,15.0,2,down,2,2
372,2,True,0.9871546999784186,800.0,50.0,33.0,10,False,2,down,0.16666666666666666,21,0.17557980003766716,0.38236779998987913,0.5579476000275463,0.6253141999477521,True,near-160,57,4,4,2.5,2,down,2,0
373,2,True,1.5411864999914542,800.0,50.0,33.0,10,False,2,down,0.16666666666666666,21,0.17534710001200438,0.38750059995800257,0.5628476999700069,1.3156597999623045,True,near-160,58,5,5,3.125,2,down,2,0
374,1,True,1.3691446000011638,800.0,33.0,50.0,0,False,3,down,0.16666666666666666,67,0,1.0985316999722272,1.0985316999722272,1.6877349000424147,True,near-rnd3,58,5,5,3.125,2,down,1,0
375,3,True,0.8382288999855518,800.0,50.0,33.0,10,False,2,down,0.16666666666666666,21,0.17685149994213134,0.4043513999786228,0.5812028999207541,0.6663995999842882,True,near-160,59,6,6,3.75,2,down,2,0
376,1,True,1.2768975000362843,800.0,33.0,50.0,0,False,3,down,0.16666666666666666,67,0,1.0904665000271052,1.0904665000271052,0.4696293999440968,True,near-rnd3,59,6,6,3.75,2,down,1,0
377,1,True,1.1502019999315962,800.0,50.0,33.0,10,False,2,down,0.16666666666666666,17,0.17340530001092702,0.43517890002112836,0.6085842000320554,0.576649000053294,True,near-160,60,1,1,0.625,2,down,4,0
378,3,True,1.0826278000604361,800.0,33.0,50.0,0,False,3,down,0.16666666666666666,66,0,1.094759100000374,1.094759100000374,0.6597672000061721,True,near-rnd3,60,1,1,0.625,2,down,1,0
379,1,True,1.5927202999591827,800.0,33.0,50.0,0,False,3,down,0.16666666666666666,66,0,1.0798222000012174,1.0798222000012174,0.38806100003421307,True,near-rnd3,61,2,2,1.25,2,down,1,0
380,1,True,1.5292243000585586,800.0,50.0,33.0,10,False,2,down,0.16666666666666666,17,0.17452569992747158,0.323841999983415,0.4983676999108866,0.5893465999979526,True,near-160,61,2,2,1.25,1,down,4,0
381,1,True,1.6501034999964759,800.0,33.0,50.0,0,False,3,down,0.16666666666666666,66,0,1.0771515000378713,1.0771515000378713,0.47033139993436635,True,near-rnd3,62,3,3,1.875,2,down,1,0
382,2,True,1.2828616000479087,800.0,50.0,33.0,10,False,2,down,0.16666666666666666,17,0.17306149995420128,0.33504199993330985,0.5081034998875111,0.6138081999961287,True,near-160,62,3,3,1.875,1,down,4,0
383,3,True,1.1443757999222726,800.0,33.0,50.0,0,False,3,down,0.16666666666666666,66,0,1.0959952999837697,1.0959952999837697,0.24981099995784461,True,near-rnd3,63,4,4,2.5,2,down,1,0
384,3,True,1.3511256000492722,800.0,50.0,33.0,10,False,2,down,0.16666666666666666,9,0.1842012999113649,0.19789439998567104,0.38209569989703596,0.7177115000085905,True,near-160,63,1,1,0.625,1,down,8,0
385,2,True,0.8751101000234485,800.0,33.0,50.0,0,False,3,down,0.16666666666666666,66,0,1.087641799938865,1.087641799938865,0.49254879995714873,True,near-rnd3,64,5,5,3.125,2,down,1,0
386,2,True,0.843439899967052,800.0,50.0,33.0,10,False,2,down,0.16666666666666666,9,0.18140240001957864,0.19070659996941686,0.3721089999889955,0.7986665000207722,False,near-160,64,2,1,1.25,1,down,8,0
387,2,True,0.9344148000236601,800.0,50.0,33.0,10,False,2,down,0.16666666666666666,9,0.18208379996940494,0.19966140005271882,0.38174520002212375,0.7672446999931708,True,near-160,65,3,2,1.875,1,down,8,0
388,2,True,1.005034500034526,800.0,33.0,50.0,0,False,3,down,0.16666666666666666,66,0,1.0878931999905035,1.0878931999905035,0.5287006000289693,True,near-rnd3,65,6,6,3.75,2,down,1,0
389,2,True,0.8199799000285566,800.0,50.0,33.0,10,False,2,down,0.16666666666666666,9,0.18015250004827976,0.1905292000155896,0.37068170006386936,0.6074236000422388,False,near-160,66,4,2,2.5,1,down,8,0
390,2,True,0.8304369000252336,800.0,33.0,50.0,0,False,3,down,0.16666666666666666,65,0,1.0688313000136986,1.0688313000136986,0.22358400002121925,True,near-rnd3,66,1,1,0.625,2,down,1,0
391,2,True,1.378099099965766,800.0,50.0,33.0,10,False,2,down,0.16666666666666666,9,0.18255300004966557,0.20324339997023344,0.385796400019899,0.7516543000238016,True,near-160,67,5,3,3.125,1,down,8,0
392,2,True,0.7668652000138536,800.0,33.0,50.0,0,False,3,down,0.16666666666666666,65,0,1.072289300034754,1.072289300034754,0.44732279994059354,True,near-rnd3,67,2,2,1.25,2,down,1,0
393,2,True,0.912072200095281,800.0,33.0,50.0,0,False,3,down,0.16666666666666666,65,0,1.0695907999761403,1.0695907999761403,0.3421426999848336,True,near-rnd3,68,3,3,1.875,2,down,1,0
394,3,True,1.039989700075239,800.0,50.0,33.0,10,False,2,down,0.16666666666666666,9,0.18341910000890493,0.20342140004504472,0.38684050005394965,1.0288595999591053,True,near-160,68,6,4,3.75,1,down,8,0
395,2,True,0.9232028999831527,800.0,33.0,50.0,0,False,3,down,0.16666666666666666,65,0,1.073761000065133,1.073761000065133,0.505385100026615,True,near-rnd3,69,4,4,2.5,2,down,1,0
396,1,True,1.274828299996443,800.0,50.0,33.0,10,False,2,down,0.16666666666666666,9,0.16808970004785806,0.19059680006466806,0.3586865001125261,0.8103238000767305,False,near-160,69,7,4,4.375,1,down,8,0
397,2,True,0.9331057999515906,800.0,50.0,33.0,10,False,2,down,0.16666666666666666,9,0.1794976000674069,0.20432500005699694,0.38382260012440383,0.6670579999918118,True,near-160,70,8,5,5.0,1,down,8,0
398,2,True,1.10110819991678,800.0,33.0,50.0,0,False,3,down,0.16666666666666666,65,0,1.0730680000269786,1.0730680000269786,0.3760732999071479,True,near-rnd3,70,5,5,3.125,2,down,1,0
399,1,True,1.2468279999447986,800.0,33.0,50.0,0,False,3,down,0.16666666666666666,65,0,1.065805000020191,1.065805000020191,0.3487453000852838,True,near-rnd3,71,6,6,3.75,2,down,1,0
400,1,True,1.4404027999844402,800.0,50.0,33.0,10,False,2,down,0.16666666666666666,9,0.16577880003023893,0.18486140004824847,0.3506402000784874,0.8408324999036267,False,near-160,71,9,5,5.625,1,down,8,1
401,4,True,1.0746819999767467,800.0,33.0,50.0,0,False,3,down,0.16666666666666666,63,0,1.0611562000121921,1.0611562000121921,0.4111265999963507,True,near-rnd3,72,1,1,0.625,2,down,2,0
402,3,True,1.2942078000633046,800.0,50.0,33.0,10,False,2,down,0.16666666666666666,9,0.18385740008670837,0.2043145999778062,0.3881720000645146,0.6891238000243902,True,near-160,72,10,6,6.25,1,down,8,1
403,1,True,1.3307121000252664,800.0,33.0,50.0,0,False,3,down,0.16666666666666666,63,0,1.0284261999186128,1.0284261999186128,0.05982129997573793,True,near-rnd3,73,2,2,1.25,2,down,2,0
404,3,True,0.8698498000157997,800.0,50.0,33.0,10,False,2,down,0.16666666666666666,9,0.18419150006957352,0.21340380003675818,0.3975953001063317,0.8117403999203816,True,near-160,73,11,7,6.875,1,down,8,1
405,1,True,1.2358248999807984,800.0,50.0,33.0,10,False,2,down,0.16666666666666666,9,0.17163479991722852,0.19655160000547767,0.3681863999227062,0.5662651000311598,False,near-160,74,12,7,7.5,1,down,8,1
406,1,True,1.5698234000010416,800.0,33.0,50.0,0,False,3,down,0.16666666666666666,63,0,1.032756199943833,1.032756199943833,0.4773373999632895,True,near-rnd3,74,3,3,1.875,2,down,2,0
407,1,True,1.227890699985437,800.0,33.0,50.0,0,False,3,down,0.16666666666666666,63,0,1.0324973999522626,1.0324973999522626,0.40653749997727573,True,near-rnd3,75,4,4,2.5,2,down,2,0
408,4,True,1.9243092000251636,800.0,50.0,33.0,10,False,2,down,0.16666666666666666,9,0.18557219998911023,0.22110070008784533,0.40667290007695556,0.7507847000379115,True,near-160,75,13,8,8.125,1,down,8,1
409,2,True,0.803213799954392,800.0,50.0,33.0,10,False,2,down,0.16666666666666666,9,0.17848240002058446,0.20637650007847697,0.38485890009906143,0.6882598000811413,True,near-160,76,14,9,8.75,1,down,8,1
410,1,True,0.8851648999843746,800.0,33.0,50.0,0,False,3,down,0.16666666666666666,63,0,1.0324676999589428,1.0324676999589428,1.6744867999805138,True,near-rnd3,76,5,5,3.125,2,down,2,0
411,2,True,0.7743677999824286,800.0,50.0,33.0,10,False,2,down,0.16666666666666666,9,0.1730292000574991,0.2065113999415189,0.379540599999018,0.7333521000109613,False,near-160,77,15,9,9.375,1,down,8,1
412,3,True,1.2935934999259189,800.0,33.0,50.0,0,False,3,down,0.16666666666666666,63,0,1.0567486000945792,1.0567486000945792,0.4164845000486821,True,near-rnd3,77,6,6,3.75,2,down,2,0
413,1,True,1.49897770001553,800.0,33.0,50.0,0,False,3,down,0.16666666666666666,59,0,0.9688323000445962,0.9688323000445962,0.3741549000842497,True,near-rnd3,78,1,1,0.625,2,down,4,0
414,2,True,1.1583079000702128,800.0,50.0,33.0,10,False,2,down,0.16666666666666666,9,0.1755859999684617,0.20726299996022135,0.38284899992868304,0.6471649999730289,False,near-160,78,16,9,10.0,1,down,8,1
415,3,True,1.3467174000106752,800.0,33.0,50.0,0,False,3,down,0.16666666666666666,59,0,0.9855837000068277,0.9855837000068277,0.9142084999475628,True,near-rnd3,79,2,2,1.25,1,down,4,0
416,1,True,1.2339703999459743,800.0,50.0,33.0,10,False,2,down,0.16666666666666666,9,0.17334930005017668,0.19227610004600137,0.36562540009617805,0.8769459000322968,False,near-160,79,17,9,10.625,1,down,8,2
417,2,True,1.176158200018108,800.0,33.0,50.0,0,False,3,down,0.16666666666666666,59,0,0.9743541999487206,0.9743541999487206,0.2622300999937579,True,near-rnd3,80,3,3,1.875,1,down,4,0
418,4,True,1.0060180999571458,800.0,50.0,33.0,10,False,2,up,0.16666666666666666,10,0.19588579994160682,0.23866219993215054,0.43454799987375736,0.8083314000396058,False,near-160,80,1,0,0.625,1,up,1,0
419,3,True,0.9292280999943614,800.0,50.0,33.0,10,False,2,up,0.16666666666666666,10,0.17900330002885312,0.22808250004891306,0.4070858000777662,0.9378209999995306,True,near-160,81,2,1,1.25,2,up,1,0
420,4,True,0.9944406999275088,800.0,33.0,50.0,0,False,3,down,0.16666666666666666,51,0,0.8785058000357822,0.8785058000357822,0.7890741999726743,True,near-rnd3,81,1,1,0.625,1,down,8,0
421,2,True,0.7844351000385359,800.0,33.0,50.0,0,False,3,down,0.16666666666666666,51,0,0.8453020000597462,0.8453020000597462,0.4789391999365762,True,near-rnd3,82,2,2,1.25,1,down,8,0
422,1,True,1.6038880000123754,800.0,50.0,33.0,10,False,2,up,0.16666666666666666,10,0.17121629999019206,0.19702600000891834,0.3682422999991104,0.8159489000681788,False,near-160,82,3,1,1.875,2,up,1,0
423,2,True,1.3222425999119878,800.0,50.0,33.0,10,False,2,up,0.16666666666666666,10,0.17105960007756948,0.2230246999533847,0.3940843000309542,0.7699084000196308,True,near-160,83,4,2,2.5,2,up,1,0
424,4,True,0.8849316999549046,800.0,33.0,50.0,0,False,3,down,0.16666666666666666,51,0,0.8651002000551671,0.8651002000551671,0.1757968000601977,True,near-rnd3,83,3,3,1.875,1,down,8,0
425,4,True,0.8601187999593094,800.0,50.0,33.0,10,False,2,up,0.16666666666666666,10,0.1902257000328973,0.22592660004738718,0.4161523000802845,0.556467599933967,True,near-160,84,5,3,3.125,2,up,1,0
426,3,True,1.8747875000117347,800.0,33.0,50.0,0,False,3,down,0.16666666666666666,35,0,0.6127335999626666,0.6127335999626666,1.4453175999224186,False,near-rnd3,84,1,0,0.625,1,down,16,0
427,2,True,1.2186401999788359,800.0,50.0,33.0,10,False,2,up,0.16666666666666666,10,0.18242530000861734,0.20760199998039752,0.39002729998901486,0.7743185999570414,True,near-160,85,6,4,3.75,2,up,1,0
428,3,True,0.7888946000020951,800.0,33.0,50.0,0,False,3,down,0.16666666666666666,35,0,0.6071863999823108,0.6071863999823108,1.2039196999976411,False,near-rnd3,85,2,0,1.25,1.0,down,16,0
429,1,True,1.6851408999646083,800.0,33.0,50.0,0,False,3,up,0.16666666666666666,43,0,0.7075833999551833,0.7075833999551833,0.5358852000208572,True,near-rnd3,86,1,1,0.625,1.0,up,8,0
430,3,True,0.9301635000156239,800.0,50.0,33.0,10,False,2,up,0.16666666666666666,10,0.17887740000151098,0.22119740000925958,0.40007480001077056,0.5838517000665888,True,near-160,86,7,5,4.375,2,up,1,0
431,1,True,0.957020299974829,800.0,33.0,50.0,0,False,3,up,0.16666666666666666,43,0,0.711089099990204,0.711089099990204,0.5996265000430867,False,near-rnd3,87,2,1,1.25,1,up,8,0
432,3,True,1.3323300000047311,800.0,50.0,33.0,10,False,2,up,0.16666666666666666,10,0.18896880000829697,0.2285660000052303,0.4175348000135273,0.6844822999555618,True,near-160,87,8,6,5.0,2,up,1,0
433,3,True,1.2290338999591768,800.0,50.0,33.0,10,False,2,up,0.16666666666666666,10,0.18773869995493442,0.22318029997404665,0.41091899992898107,0.627826499985531,True,near-160,88,9,7,5.625,2,up,1,1
434,2,True,1.1376629000296816,800.0,33.0,50.0,0,False,3,up,0.16666666666666666,43,0,0.7188127000117674,0.7188127000117674,0.621675500064157,True,near-rnd3,88,3,2,1.875,1,up,8,0
435,1,True,1.182569699943997,800.0,50.0,33.0,10,False,2,up,0.16666666666666666,10,0.169209000072442,0.2095539999427274,0.3787630000151694,3.0119383999845013,False,near-160,89,10,7,6.25,2,up,1,1
436,4,True,1.1487752000102773,800.0,33.0,50.0,0,False,3,up,0.16666666666666666,43,0,0.7533524000318721,0.7533524000318721,0.6112676000921056,True,near-rnd3,89,4,3,2.5,1,up,8,0
437,2,True,1.4459244000026956,800.0,50.0,33.0,10,False,2,up,0.16666666666666666,10,0.17819559993222356,0.21158770006150007,0.38978329999372363,0.6428104999940842,True,near-160,90,11,8,6.875,2,up,1,1
438,4,True,0.888292699935846,800.0,33.0,50.0,0,False,3,up,0.16666666666666666,43,0,0.7492238999111578,0.7492238999111578,1.0656282999552786,False,near-rnd3,90,5,3,3.125,1,up,8,0
439,3,True,1.3693456000182778,800.0,33.0,50.0,0,False,3,up,0.16666666666666666,43,0,0.7340553998947144,0.7340553998947144,0.7733609999995679,False,near-rnd3,91,6,3,3.75,1,up,8,0
440,2,True,1.1180258999811485,800.0,50.0,33.0,10,False,2,up,0.16666666666666666,10,0.17749989998992532,0.21387450001202524,0.39137440000195056,0.6701956999022514,False,near-160,91,12,8,7.5,2,up,1,1
441,2,True,0.9228738999227062,800.0,33.0,50.0,0,False,3,up,0.16666666666666666,43,0,0.7180560999549925,0.7180560999549925,1.1520287999883294,False,near-rnd3,92,7,3,4.375,1,up,8,0
442,1,True,1.622946200077422,800.0,50.0,33.0,10,False,2,up,0.16666666666666666,10,0.17298359994310886,0.2028111000545323,0.37579469999764115,1.0008317000465468,True,near-160,92,13,9,8.125,2,up,1,1
443,2,True,0.9674724999349564,800.0,50.0,33.0,10,False,2,up,0.16666666666666666,10,0.17781010002363473,0.2101630000397563,0.38797310006339103,0.7557523999130353,False,near-160,93,14,9,8.75,2,up,1,1
444,2,True,1.1827142999973148,800.0,33.0,50.0,0,False,3,up,0.16666666666666666,51,0,0.9589217000175267,0.9589217000175267,0.35493899998255074,True,near-rnd3,93,1,1,0.625,1,up,8,0
445,2,True,1.1193247999763116,800.0,33.0,50.0,0,False,3,up,0.16666666666666666,51,0,0.8443117999704555,0.8443117999704555,0.4233160000294447,True,near-rnd3,94,2,2,1.25,1,up,8,0
446,1,True,1.30893110006582,800.0,50.0,33.0,10,False,2,up,0.16666666666666666,10,0.17159559996798635,0.20109069999307394,0.3726862999610603,1.1726988999871537,False,near-160,94,15,9,9.375,2,up,1,1
447,2,True,0.9731186999706551,800.0,33.0,50.0,0,False,3,up,0.16666666666666666,51,0,0.8485263000475243,0.8485263000475243,0.3151088999584317,True,near-rnd3,95,3,3,1.875,1,up,8,0
448,2,True,1.0507041999371722,800.0,50.0,33.0,10,False,2,up,0.16666666666666666,10,0.17648370005190372,0.2221315000206232,0.39861520007252693,0.5242524000350386,False,near-160,95,16,9,10.0,2,up,1,1
