trial,primeIter,primeCorrect,primeTime,primeDepth,stimDepth,extraDepth,driveFrames,nearToFar,diopters,direction,size,intensity,extraLatency,mainLatency,totalLatency,responseTime,correct,caseLabel,caseTrial,trialsAtStep,stepCorrect,expected,w,direction,stepsize,stepChange
1,1,True,4.433185800095089,800.0,33.0,50.0,0,False,3,start,0.16666666666666666,60,0,0.979702900047414,0.979702900047414,0.4937962000258267,True,near-rnd3,1,1,1,0.625,0.5,start,16,0
2,1,True,2.405470500001684,800.0,800.0,50.0,0,False,0,start,0.16666666666666666,60,0,0.9875069999834523,0.9875069999834523,3.737951199989766,True,near-rndm,1,1,1,0.625,0.5,start,16,0
3,2,True,1.2045018000062555,800.0,50.0,33.0,0,False,2,start,0.16666666666666666,60,0,1.0185492999153212,1.0185492999153212,0.3514384999871254,True,near-000,1,1,1,0.625,0.5,start,16,0
4,4,True,0.8938092000316828,800.0,50.0,33.0,15,False,2,start,0.16666666666666666,60,0.2643131000222638,1.0367810000898317,1.3010941001120955,0.40544690005481243,True,near-240,1,1,1,0.625,0.5,start,16,0
5,3,True,0.9192620000103489,800.0,100.0,50.0,0,False,1,start,0.16666666666666666,60,0,1.0309690999565646,1.0309690999565646,0.13369689998216927,True,near-rnd2,1,1,1,0.625,0.5,start,16,0
6,1,True,2.0822325000772253,800.0,50.0,33.0,5,False,2,start,0.16666666666666666,60,0.0918150000507012,1.0076806000433862,1.0994956000940874,1.9342682000715286,False,near-080,1,1,0,0.625,0.5,start,16,0
7,3,True,0.8663304999936372,800.0,50.0,33.0,10,False,2,start,0.16666666666666666,60,0.18146330001764,1.0310780999716371,1.2125413999892771,1.5409659000579268,True,near-160,1,1,1,0.625,0.5,start,16,0
8,1,True,1.661966299987398,800.0,50.0,33.0,15,False,2,start,0.16666666666666666,44,0.25035620003473014,0.7477759999455884,0.9981321999803185,0.9241462999489158,True,near-240,2,1,1,0.625,1.0,start,16,0
9,1,True,1.7392005999572575,800.0,50.0,33.0,10,False,2,start,0.16666666666666666,44,0.16668750008102506,0.748121100012213,0.9148086000932381,0.49179709993768483,True,near-160,2,1,1,0.625,1.0,start,16,0
10,2,True,1.2253306000493467,800.0,33.0,50.0,0,False,3,start,0.16666666666666666,44,0,0.7728943000547588,0.7728943000547588,0.8896463999990374,True,near-rnd3,2,1,1,0.625,1.0,start,16,0
11,3,True,0.7438950999639928,800.0,50.0,33.0,5,False,2,start,0.16666666666666666,60,0.0971491999225691,1.0283990000607446,1.1255481999833137,0.7900037999497727,True,near-080,2,2,1,1.25,1.0,start,16,0
12,2,True,1.291439599939622,800.0,800.0,50.0,0,False,0,start,0.16666666666666666,44,0,0.7423595999134704,0.7423595999134704,0.3358188000274822,True,near-rndm,2,1,1,0.625,1.0,start,16,0
13,4,True,1.4828739000950009,800.0,50.0,33.0,0,False,2,start,0.16666666666666666,44,0,0.814899199991487,0.814899199991487,0.5620123000117019,True,near-000,2,1,1,0.625,1.0,start,16,0
14,2,True,0.6888707000762224,800.0,100.0,50.0,0,False,1,start,0.16666666666666666,44,0,0.7502090999623761,0.7502090999623761,0.35601780004799366,True,near-rnd2,2,1,1,0.625,1.0,start,16,0
15,4,True,0.8595757000148296,800.0,33.0,50.0,0,False,3,start,0.16666666666666666,28,0,0.4934211000800133,0.4934211000800133,4.865404500043951,True,near-rnd3,3,1,1,0.625,1.0,start,16,0
16,1,True,1.2660153999458998,800.0,800.0,50.0,0,False,0,start,0.16666666666666666,28,0,0.47600439994130284,0.47600439994130284,2.2891079999972135,True,near-rndm,3,1,1,0.625,1.0,start,16,0
17,2,True,0.9799639999400824,800.0,100.0,50.0,0,False,1,start,0.16666666666666666,28,0,0.5031594999600202,0.5031594999600202,0.7654028999386355,True,near-rnd2,3,1,1,0.625,1.0,start,16,0
18,1,True,1.1930570000549778,800.0,50.0,33.0,10,False,2,start,0.16666666666666666,28,0.17470159998629242,0.49196420004591346,0.6666658000322059,1.6877145000034943,False,near-160,3,1,0,0.625,1.0,start,16,0
19,2,True,0.9340836999472231,800.0,50.0,33.0,5,False,2,start,0.16666666666666666,44,0.09519310004543513,0.7532126000151038,0.848405700060539,0.5072098000673577,True,near-080,3,1,1,0.625,1.0,start,16,0
20,2,True,0.7863728000083938,800.0,50.0,33.0,15,False,2,start,0.16666666666666666,28,0.25902819994371384,0.49278299999423325,0.7518111999379471,0.7786841000197455,True,near-240,3,1,1,0.625,1.0,start,16,0
21,1,True,0.8226242000237107,800.0,50.0,33.0,0,False,2,start,0.16666666666666666,28,0,0.4863392999395728,0.4863392999395728,0.8830434000119567,True,near-000,3,1,1,0.625,1.0,start,16,0
22,1,True,1.1905018999241292,800.0,33.0,50.0,0,False,3,start,0.16666666666666666,12,0,0.21176009997725487,0.21176009997725487,1.6115754999918863,False,near-rnd3,4,1,0,0.625,0.5,start,16,0
23,2,True,0.9240350999170914,800.0,100.0,50.0,0,False,1,start,0.16666666666666666,12,0,0.24999759998172522,0.24999759998172522,0.8775775999529287,True,near-rnd2,4,1,1,0.625,0.5,start,16,0
24,1,True,1.36423599999398,800.0,50.0,33.0,5,False,2,start,0.16666666666666666,28,0.09392779995687306,0.5000105000799522,0.5939383000368252,1.0844113000202924,False,near-080,4,1,0,0.625,0.5,start,16,0
25,2,True,1.1796317999251187,800.0,50.0,33.0,15,False,2,start,0.16666666666666666,12,0.2551426999270916,0.2636314000701532,0.5187740999972448,0.6203625000780448,True,near-240,4,1,1,0.625,0.5,start,16,0
26,2,True,0.7006424000719562,800.0,50.0,33.0,10,False,2,up,0.16666666666666666,36,0.17587429995182902,0.6268791999900714,0.8027534999419004,0.6105338999768719,True,near-160,4,1,1,0.625,0.5,up,8,0
27,2,True,0.7881629000185058,800.0,800.0,50.0,0,False,0,start,0.16666666666666666,12,0,0.24000220000743866,0.24000220000743866,1.408092200057581,False,near-rndm,4,1,0,0.625,0.5,start,16,0
28,1,True,1.0764646000461653,800.0,50.0,33.0,0,False,2,start,0.16666666666666666,12,0,0.2574021000182256,0.2574021000182256,1.1571700000204146,False,near-000,4,1,0,0.625,0.5,start,16,0
29,1,True,1.322089200024493,800.0,50.0,33.0,0,False,2,up,0.16666666666666666,20,0,0.3616758999414742,0.3616758999414742,1.4278151000617072,False,near-000,5,1,0,0.625,0.5,up,8,0
30,4,True,0.8894600999774411,800.0,100.0,50.0,0,False,1,start,0.16666666666666666,0,0,0.06274700001813471,0.06274700001813471,1.2690672999015078,False,near-rnd2,5,1,0,0.625,0.5,start,16,0
31,2,True,0.7831539999460801,800.0,50.0,33.0,10,False,2,up,0.16666666666666666,36,0.17872229998465627,0.6239970000460744,0.8027193000307307,0.5821655999170616,True,near-160,5,2,2,1.25,1,up,8,0
32,3,True,0.9071479999693111,800.0,33.0,50.0,0,False,3,up,0.16666666666666666,20,0,0.3691920000128448,0.3691920000128448,1.3985663000494242,False,near-rnd3,5,1,0,0.625,0.5,up,8,0
33,1,True,1.3105849999701604,800.0,50.0,33.0,5,False,2,up,0.16666666666666666,36,0.09108419995754957,0.6171357999555767,0.7082199999131262,0.5529753000009805,True,near-080,5,1,1,0.625,0.5,up,8,0
34,2,True,0.8997724000364542,800.0,50.0,33.0,15,False,2,start,0.16666666666666666,0,0.26296019996516407,0.047094799927435815,0.3100549998925999,1.0101042999885976,False,near-240,5,1,0,0.625,0.5,start,16,0
35,2,True,0.7073249000823125,800.0,800.0,50.0,0,False,0,up,0.16666666666666666,20,0,0.35988730005919933,0.35988730005919933,0.6684427000582218,True,near-rndm,5,1,1,0.625,0.5,up,8,0
36,1,True,1.0013108999701217,800.0,800.0,50.0,0,False,0,up,0.16666666666666666,20,0,0.35436989995650947,0.35436989995650947,1.0837304999586195,True,near-rndm,6,2,2,1.25,1,up,8,0
37,2,True,1.0556658999994397,800.0,50.0,33.0,5,False,2,up,0.16666666666666666,36,0.09590800001751631,0.6253027999773622,0.7212107999948785,0.38817239995114505,True,near-080,6,2,2,1.25,1,up,8,0
38,4,True,1.4991055999416858,800.0,33.0,50.0,0,False,3,up,0.16666666666666666,20,0,0.37094490008894354,0.37094490008894354,2.213203400024213,False,near-rnd3,6,2,0,1.25,1,up,8,0
39,1,True,1.9157815999351442,800.0,50.0,33.0,10,False,2,up,0.16666666666666666,36,0.1670227999566123,0.6155487999785691,0.7825715999351814,0.2541238999692723,True,near-160,6,3,3,1.875,1,up,8,0
40,2,True,1.0342601999873295,800.0,100.0,50.0,0,False,1,up,0.16666666666666666,8,0,0.17925439996179193,0.17925439996179193,0.8541887999745086,False,near-rnd2,6,1,0,0.625,0.5,up,8,0
41,3,True,0.8922708999598399,800.0,50.0,33.0,0,False,2,up,0.16666666666666666,20,0,0.4257170999189839,0.4257170999189839,0.8664043999742717,False,near-000,6,2,0,1.25,1,up,8,0
42,4,True,0.7047065000515431,800.0,50.0,33.0,15,False,2,up,0.16666666666666666,8,0.26335959997959435,0.19252140005119145,0.4558810000307858,3.465546500054188,False,near-240,6,1,0,0.625,0.5,up,8,0
43,3,True,1.706825100001879,800.0,50.0,33.0,15,False,2,up,0.16666666666666666,8,0.26542369998060167,0.19391909998375922,0.4593427999643609,1.5901675999630243,False,near-240,7,2,0,1.25,1,up,8,0
44,2,True,0.6878616000758484,800.0,800.0,50.0,0,False,0,up,0.16666666666666666,20,0,0.3690084000118077,0.3690084000118077,1.0391144999302924,False,near-rndm,7,3,2,1.875,1,up,8,0
45,4,True,0.7344962999923155,800.0,50.0,33.0,0,False,2,up,0.16666666666666666,28,0,0.5242532999254763,0.5242532999254763,0.6156336000422016,True,near-000,7,1,1,0.625,1,up,8,0
46,3,True,1.1193010000279173,800.0,50.0,33.0,5,False,2,up,0.16666666666666666,36,0.10238870000466704,0.6541409000055864,0.7565296000102535,0.7247720999876037,True,near-080,7,3,3,1.875,1,up,8,0
47,2,True,0.8340718999970704,800.0,100.0,50.0,0,False,1,up,0.16666666666666666,8,0,0.1811136999167502,0.1811136999167502,0.9200073999818414,True,near-rnd2,7,2,1,1.25,1,up,8,0
48,1,True,1.042974999989383,800.0,50.0,33.0,10,False,2,down,0.16666666666666666,32,0.16826350009068847,0.5532398999202996,0.7215034000109881,0.7380144000053406,True,near-160,7,1,1,0.625,1,down,4,0
49,2,True,0.9960949999513105,800.0,33.0,50.0,0,False,3,up,0.16666666666666666,28,0,0.4823956999462098,0.4823956999462098,1.2910405999282375,False,near-rnd3,7,1,0,0.625,1,up,8,0
50,3,True,1.282378299976699,800.0,100.0,50.0,0,False,1,up,0.16666666666666666,8,0,0.20387389999814332,0.20387389999814332,0.8024039999581873,False,near-rnd2,8,3,1,1.875,1,up,8,0
51,3,True,1.3065710000228137,800.0,33.0,50.0,0,False,3,up,0.16666666666666666,28,0,0.4998609999893233,0.4998609999893233,1.7691316999262199,True,near-rnd3,8,2,1,1.25,1,up,8,0
52,3,True,1.2169848999474198,800.0,50.0,33.0,15,False,2,up,0.16666666666666666,16,0.2703859999310225,0.31704250001348555,0.5874284999445081,0.8980419998988509,True,near-240,8,1,1,0.625,1,up,8,0
53,2,True,0.8298918000655249,800.0,50.0,33.0,5,False,2,down,0.16666666666666666,32,0.09371389995794743,0.5637550000101328,0.6574688999680802,0.6184001000365242,False,near-080,8,1,0,0.625,1,down,4,0
54,1,True,1.3428774999920279,800.0,50.0,33.0,0,False,2,up,0.16666666666666666,28,0,0.4859412000514567,0.4859412000514567,0.724300800007768,False,near-000,8,2,1,1.25,1,up,8,0
55,4,True,0.9125054000178352,800.0,50.0,33.0,10,False,2,down,0.16666666666666666,32,0.20135880005545914,0.5950281999539584,0.7963870000094175,0.18768790003377944,True,near-160,8,2,2,1.25,1,down,4,0
56,1,True,0.942293000058271,800.0,800.0,50.0,0,False,0,up,0.16666666666666666,20,0,0.35190959996543825,0.35190959996543825,0.7471106000011787,True,near-rndm,8,4,3,2.5,1,up,8,0
57,1,True,0.8888063000049442,800.0,33.0,50.0,0,False,3,up,0.16666666666666666,28,0,0.4704670999199152,0.4704670999199152,1.049445000011474,True,near-rnd3,9,3,2,1.875,1,up,8,0
58,1,True,1.27802970004268,800.0,50.0,33.0,0,False,2,up,0.16666666666666666,28,0,0.49018899991642684,0.49018899991642684,0.9007428999757394,False,near-000,9,3,1,1.875,1,up,8,0
59,3,True,0.8615054000401869,800.0,50.0,33.0,5,False,2,down,0.16666666666666666,32,0.11544920003507286,0.58438799995929,0.6998371999943629,0.5200912998989224,True,near-080,9,2,1,1.25,1,down,4,0
60,1,True,1.0751950000412762,800.0,100.0,50.0,0,False,1,up,0.16666666666666666,8,0,0.17641180008649826,0.17641180008649826,0.9268948000390083,True,near-rnd2,9,4,2,2.5,1,up,8,0
61,2,True,0.9208682999014854,800.0,50.0,33.0,10,False,2,down,0.16666666666666666,32,0.1821504000108689,0.5606783999828622,0.7428287999937311,0.2779111999552697,True,near-160,9,3,3,1.875,1,down,4,0
62,2,True,0.7520194000098854,800.0,50.0,33.0,15,False,2,up,0.16666666666666666,16,0.25947030005045235,0.40330629993695766,0.66277659998741,0.5147677999921143,True,near-240,9,2,2,1.25,1,up,8,0
63,2,True,0.8455317999469116,800.0,800.0,50.0,0,False,0,up,0.16666666666666666,20,0,0.35829879995435476,0.35829879995435476,0.6726782999467105,False,near-rndm,9,5,3,3.125,1,up,8,0
64,2,True,0.9580942000029609,800.0,50.0,33.0,0,False,2,up,0.16666666666666666,28,0,0.5088102000299841,0.5088102000299841,0.4083933000219986,True,near-000,10,4,2,2.5,1,up,8,0
65,1,True,1.2246231999015436,800.0,100.0,50.0,0,False,1,up,0.16666666666666666,8,0,0.17480170005001128,0.17480170005001128,0.9006271000253037,False,near-rnd2,10,5,2,3.125,1,up,8,0
66,1,True,0.8613691000500694,800.0,50.0,33.0,5,False,2,down,0.16666666666666666,32,0.09016649995464832,0.55552599998191,0.6456924999365583,0.6317548000952229,False,near-080,10,3,1,1.875,1,down,4,0
67,2,True,0.8081413999898359,800.0,50.0,33.0,10,False,2,down,0.16666666666666666,28,0.18148030003067106,0.5010977999772877,0.6825781000079587,0.5535510999616235,True,near-160,10,1,1,0.625,1,down,4,0
68,2,True,0.6760315999854356,800.0,33.0,50.0,0,False,3,up,0.16666666666666666,28,0,0.4814049999695271,0.4814049999695271,0.7340715000173077,False,near-rnd3,10,4,2,2.5,1,up,8,0
69,2,True,0.8589800000190735,800.0,50.0,33.0,15,False,2,up,0.16666666666666666,16,0.2555855999235064,0.3092983999522403,0.5648839998757467,0.6106017000274733,True,near-240,10,3,3,1.875,1,up,8,0
70,4,True,0.9324797000735998,800.0,800.0,50.0,0,False,0,up,0.16666666666666666,20,0,0.39653570007067174,0.39653570007067174,0.5579843000741675,True,near-rndm,10,6,4,3.75,1,up,8,0
71,2,True,0.9514593000058085,800.0,50.0,33.0,10,False,2,down,0.16666666666666666,28,0.17320900002960116,0.5050326000200585,0.6782416000496596,0.38347890006843954,True,near-160,11,2,2,1.25,1,down,4,0
72,2,True,0.8219019999960437,800.0,100.0,50.0,0,False,1,up,0.16666666666666666,16,0,0.303761399933137,0.303761399933137,0.4763052000198513,True,near-rnd2,11,1,1,0.625,1,up,8,0
73,3,True,0.7284710999811068,800.0,33.0,50.0,0,False,3,up,0.16666666666666666,28,0,0.49306979996617883,0.49306979996617883,0.6554744000313804,True,near-rnd3,11,5,3,3.125,1,up,8,0
74,2,True,0.6522030000342056,800.0,800.0,50.0,0,False,0,up,0.16666666666666666,20,0,0.36004529998172075,0.36004529998172075,0.4816458000568673,True,near-rndm,11,7,5,4.375,1,up,8,0
75,4,True,0.751559600001201,800.0,50.0,33.0,0,False,2,up,0.16666666666666666,28,0,0.5247131999349222,0.5247131999349222,0.6151111000217497,True,near-000,11,5,3,3.125,1,up,8,0
76,5,True,0.8212490000296384,800.0,50.0,33.0,15,False,2,down,0.16666666666666666,12,0.27485159994103014,0.2839037000667304,0.5587553000077605,0.6728938000742346,False,near-240,11,1,0,0.625,1,down,4,0
77,2,True,0.6858350000111386,800.0,50.0,33.0,5,False,2,down,0.16666666666666666,32,0.10270829999353737,0.5982787000248209,0.7009870000183582,0.1317269999999553,True,near-080,11,4,2,2.5,1,down,4,0
78,2,True,1.117922900011763,800.0,800.0,50.0,0,False,0,up,0.16666666666666666,20,0,0.36244759999681264,0.36244759999681264,0.5875063999556005,True,near-rndm,12,8,6,5.0,1,up,8,0
79,4,True,0.925842099939473,800.0,50.0,33.0,15,False,2,down,0.16666666666666666,12,0.27067490003537387,0.2625426999293268,0.5332175999647006,0.6021632000338286,True,near-240,12,2,1,1.25,1,down,4,0
80,1,True,1.3310894999885932,800.0,33.0,50.0,0,False,3,up,0.16666666666666666,28,0,0.4684554999694228,0.4684554999694228,0.8209035999607295,True,near-rnd3,12,6,4,3.75,1,up,8,0
81,3,True,0.7223693000851199,800.0,50.0,33.0,0,False,2,up,0.16666666666666666,28,0,0.5086635000770912,0.5086635000770912,0.4765610999893397,False,near-000,12,6,3,3.75,1,up,8,0
82,2,True,0.6100672000320628,800.0,50.0,33.0,10,False,2,down,0.16666666666666666,28,0.17942170007154346,0.5083518999163061,0.6877735999878496,0.3618854000233114,True,near-160,12,3,3,1.875,1,down,4,0
83,1,True,1.0057979000266641,800.0,50.0,33.0,5,False,2,down,0.16666666666666666,32,0.08712270006071776,0.554395699989982,0.6415184000506997,0.4849600000306964,True,near-080,12,5,3,3.125,1,down,4,0
84,1,True,1.0447261999361217,800.0,100.0,50.0,0,False,1,up,0.16666666666666666,16,0,0.2942806000355631,0.2942806000355631,0.8535491999937221,True,near-rnd2,12,2,2,1.25,1,up,8,0
85,2,True,0.7866073999321088,800.0,50.0,33.0,15,False,2,down,0.16666666666666666,12,0.25335620006080717,0.24275680002756417,0.49611300008837134,0.7646957000251859,False,near-240,13,3,1,1.875,1,down,4,0
86,2,True,0.7922953000525013,800.0,50.0,33.0,10,False,2,down,0.16666666666666666,24,0.3087747000390664,0.43143390002660453,0.7402086000656709,0.7330896001076326,False,near-160,13,1,0,0.625,1,down,4,0
87,1,True,1.0397195999976248,800.0,33.0,50.0,0,False,3,up,0.16666666666666666,28,0,0.46533280005678535,0.46533280005678535,1.2236951000522822,False,near-rnd3,13,7,4,4.375,1,up,8,0
88,1,True,1.1979212000733241,800.0,800.0,50.0,0,False,0,up,0.16666666666666666,20,0,0.350091400090605,0.350091400090605,2.543859700090252,False,near-rndm,13,9,6,5.625,1,up,8,1
89,1,True,1.208627499989234,800.0,50.0,33.0,5,False,2,down,0.16666666666666666,32,0.090533799957484,0.6229569000424817,0.7134906999999657,0.9900425000814721,False,near-080,13,6,3,3.75,1,down,4,0
90,2,True,0.8736865000100806,800.0,100.0,50.0,0,False,1,up,0.16666666666666666,16,0,0.30689780006650835,0.30689780006650835,0.9054815000854433,True,near-rnd2,13,3,3,1.875,1,up,8,0
91,2,True,1.1732746999477968,800.0,50.0,33.0,0,False,2,up,0.16666666666666666,28,0,0.5013120999792591,0.5013120999792591,3.3311825001146644,True,near-000,13,7,4,4.375,1,up,8,0
92,3,True,0.8631115999305621,800.0,50.0,33.0,15,False,2,down,0.16666666666666666,12,0.259273299947381,0.25027590000536293,0.509549199952744,0.6961183999665082,True,near-240,14,4,2,2.5,1,down,4,0
93,3,True,1.2981183000374585,800.0,50.0,33.0,10,False,2,down,0.16666666666666666,24,0.19279709993861616,0.4462664000457153,0.6390634999843314,0.5637147000525147,False,near-160,14,2,0,1.25,1,down,4,0
94,2,True,0.728855499997735,800.0,50.0,33.0,0,False,2,up,0.16666666666666666,28,0,0.4901279000332579,0.4901279000332579,0.45055020006839186,True,near-000,14,8,5,5.0,1,up,8,0
95,1,True,1.139509900007397,800.0,800.0,50.0,0,False,0,up,0.16666666666666666,20,0,0.3464498999528587,0.3464498999528587,1.2588462999556214,False,near-rndm,14,10,6,6.25,1,up,8,1
96,1,True,0.9567221999168396,800.0,33.0,50.0,0,False,3,up,0.16666666666666666,28,0,0.47197409998625517,0.47197409998625517,1.238638700102456,True,near-rnd3,14,8,5,5.0,1,up,8,0
97,2,True,0.8766266000457108,800.0,50.0,33.0,5,False,2,down,0.16666666666666666,32,0.0949302000226453,0.5659653999609873,0.6608955999836326,0.4960224999813363,True,near-080,14,7,4,4.375,1,down,4,0
98,1,True,1.3215193999931216,800.0,100.0,50.0,0,False,1,down,0.16666666666666666,12,0,0.23464080004487187,0.23464080004487187,0.9595114000840113,True,near-rnd2,14,1,1,0.625,1,down,4,0
99,1,True,1.4958889000117779,800.0,800.0,50.0,0,False,0,up,0.16666666666666666,20,0,0.3431954000843689,0.3431954000843689,1.2263418000657111,False,near-rndm,15,11,6,6.875,1,up,8,1
100,1,True,1.0832542999414727,800.0,100.0,50.0,0,False,1,down,0.16666666666666666,12,0,0.2281815999886021,0.2281815999886021,1.8872415999649093,False,near-rnd2,15,2,1,1.25,1,down,4,0
101,2,True,1.0810955000342801,800.0,50.0,33.0,15,False,2,down,0.16666666666666666,12,0.24919770006090403,0.2379916999489069,0.4871894000098109,1.0075277000432834,False,near-240,15,5,2,3.125,1,down,4,0
102,3,True,0.9460100999567658,800.0,50.0,33.0,10,False,2,up,0.16666666666666666,26,0.18499039998278022,0.48894740000832826,0.6739377999911085,0.7289842000463977,True,near-160,15,1,1,0.625,1,up,2,0
103,4,True,1.5698146000504494,800.0,50.0,33.0,5,False,2,down,0.16666666666666666,32,0.10740380000788718,0.5879792000632733,0.6953830000711605,0.2412563000107184,True,near-080,15,8,5,5.0,1,down,4,0
104,2,True,0.9025468999752775,800.0,33.0,50.0,0,False,3,up,0.16666666666666666,28,0,0.475016999989748,0.475016999989748,0.8508936999132857,True,near-rnd3,15,9,6,5.625,1,up,8,1
105,2,True,0.744270599912852,800.0,50.0,33.0,0,False,2,up,0.16666666666666666,28,0,0.5957211999921128,0.5957211999921128,0.341578199993819,True,near-000,15,9,6,5.625,1,up,8,1
106,3,True,1.3452068999176845,800.0,100.0,50.0,0,False,1,down,0.16666666666666666,12,0,0.25508420006372035,0.25508420006372035,0.61555300001055,True,near-rnd2,16,3,2,1.875,1,down,4,0
107,4,True,1.149241799954325,800.0,50.0,33.0,10,False,2,up,0.16666666666666666,26,0.19022420002147555,0.47612250002566725,0.6663467000471428,0.6334326000651345,False,near-160,16,2,1,1.25,2,up,2,0
108,1,True,0.8923346999799833,800.0,800.0,50.0,0,False,0,up,0.16666666666666666,20,0,0.35027970001101494,0.35027970001101494,0.8840708000352606,True,near-rndm,16,12,7,7.5,1,up,8,1
109,2,True,0.8419926000060514,800.0,50.0,33.0,5,False,2,down,0.16666666666666666,32,0.09854879998601973,0.5660053000319749,0.6645541000179946,0.4420078999828547,False,near-080,16,9,5,5.625,1,down,4,1
110,3,True,0.8496729000471532,800.0,33.0,50.0,0,False,3,up,0.16666666666666666,28,0,0.4851677999831736,0.4851677999831736,0.3983960999175906,False,near-rnd3,16,10,6,6.25,1,up,8,1
111,1,True,0.876961600035429,800.0,50.0,33.0,0,False,2,up,0.16666666666666666,28,0,0.4858617000281811,0.4858617000281811,1.3995654000900686,False,near-000,16,10,6,6.25,1,up,8,1
112,3,True,0.7831379999406636,800.0,50.0,33.0,15,False,2,up,0.16666666666666666,14,0.26717969996389,0.293759600026533,0.560939299990423,0.4787308999802917,True,near-240,16,1,1,0.625,1,up,2,0
113,1,True,1.1415485999314114,800.0,50.0,33.0,5,False,2,down,0.16666666666666666,32,0.09046289999969304,0.5540767000056803,0.6445396000053734,0.471825800021179,True,near-080,17,10,6,6.25,1,down,4,1
114,2,True,0.7254266999661922,800.0,50.0,33.0,10,False,2,up,0.16666666666666666,26,0.17358890001196414,0.4614481000462547,0.6350370000582188,0.2707074999343604,True,near-160,17,3,2,1.875,2,up,2,0
115,3,True,0.8244226999813691,800.0,800.0,50.0,0,False,0,up,0.16666666666666666,20,0,0.36248240002896637,0.36248240002896637,0.6661159000359476,False,near-rndm,17,13,7,8.125,1,up,8,1
116,1,True,1.2647742999251932,800.0,50.0,33.0,0,False,2,up,0.16666666666666666,28,0,0.48304039996583015,0.48304039996583015,0.6549478999804705,True,near-000,17,11,7,6.875,1,up,8,1
117,3,True,1.0464236000552773,800.0,33.0,50.0,0,False,3,up,0.16666666666666666,28,0,0.4929174999706447,0.4929174999706447,1.2236436000093818,False,near-rnd3,17,11,6,6.875,1,up,8,1
118,1,True,0.9164299999829382,800.0,50.0,33.0,15,False,2,up,0.16666666666666666,14,0.2510842999909073,0.26295610005035996,0.5140404000412673,0.7366644999710843,False,near-240,17,2,1,1.25,2,up,2,0
119,1,True,1.10365130007267,800.0,100.0,50.0,0,False,1,down,0.16666666666666666,12,0,0.22547990002203733,0.22547990002203733,0.9757219000020996,False,near-rnd2,17,4,2,2.5,1,down,4,0
120,3,True,1.1020342000992969,800.0,33.0,50.0,0,False,3,up,0.16666666666666666,28,0,0.4877429000334814,0.4877429000334814,0.6502382999751717,True,near-rnd3,18,12,7,7.5,1,up,8,1
121,1,True,0.9906768000219017,800.0,100.0,50.0,0,False,1,down,0.16666666666666666,12,0,0.2349703999934718,0.2349703999934718,1.1517453000415117,True,near-rnd2,18,5,3,3.125,1,down,4,0
122,1,True,1.2305688000051305,800.0,800.0,50.0,0,False,0,up,0.16666666666666666,24,0,0.4185943000484258,0.4185943000484258,0.5250837999628857,True,near-rndm,18,1,1,0.625,1,up,4,0
123,1,True,1.1958263999549672,800.0,50.0,33.0,5,False,2,down,0.16666666666666666,32,0.08852190000470728,0.558770600007847,0.6472925000125542,0.5570579000050202,True,near-080,18,11,7,6.875,1,down,4,1
124,2,True,0.9217252999078482,800.0,50.0,33.0,15,False,2,up,0.16666666666666666,14,0.25209099997300655,0.28348999994341284,0.5355809999164194,0.5752116999356076,False,near-240,18,3,1,1.875,2,up,2,0
125,3,True,1.043706800090149,800.0,50.0,33.0,10,False,2,up,0.16666666666666666,26,0.1785961000714451,0.48012339998967946,0.6587195000611246,0.429973499965854,True,near-160,18,4,3,2.5,2,up,2,0
126,3,True,0.8616389000089839,800.0,50.0,33.0,0,False,2,up,0.16666666666666666,28,0,0.5148936999030411,0.5148936999030411,0.3718403000384569,True,near-000,18,12,8,7.5,1,up,8,1
127,4,True,2.6247253000037745,800.0,33.0,50.0,0,False,3,up,0.16666666666666666,28,0,0.5046900000888854,0.5046900000888854,0.5751810000510886,True,near-rnd3,19,13,8,8.125,1,up,8,1
128,1,True,0.8791152999037877,800.0,50.0,33.0,15,False,2,up,0.16666666666666666,14,0.2515835000667721,0.2671471999492496,0.5187307000160217,0.5259033000329509,True,near-240,19,4,2,2.5,2,up,2,0
129,2,True,0.9547524999361485,800.0,800.0,50.0,0,False,0,up,0.16666666666666666,24,0,0.4271431000670418,0.4271431000670418,0.5021549999946728,True,near-rndm,19,2,2,1.25,1,up,4,0
130,2,True,0.8612777999369428,800.0,50.0,33.0,5,False,2,down,0.16666666666666666,32,0.09992549999151379,0.5607083000941202,0.660633800085634,0.35436009999830276,True,near-080,19,12,8,7.5,1,down,4,1
131,2,True,0.9742930000647902,800.0,100.0,50.0,0,False,1,down,0.16666666666666666,12,0,0.24031870008911937,0.24031870008911937,0.8382425000891089,False,near-rnd2,19,6,3,3.75,1,down,4,0
132,3,True,0.9687649999978021,800.0,50.0,33.0,0,False,2,up,0.16666666666666666,28,0,0.49989580002147704,0.49989580002147704,0.42132909991778433,False,near-000,19,13,8,8.125,1,up,8,1
133,4,True,2.4300198999699205,800.0,50.0,33.0,10,False,2,up,0.16666666666666666,26,0.18800590001046658,0.48682109999936074,0.6748270000098273,0.45228129997849464,True,near-160,19,5,4,3.125,2,up,2,0
134,1,True,0.8645800999365747,800.0,50.0,33.0,15,False,2,up,0.16666666666666666,14,0.24887510004919022,0.26547589991241693,0.5143509999616072,0.5355587999802083,False,near-240,20,5,2,3.125,2,up,2,0
135,2,True,0.9319472999777645,800.0,33.0,50.0,0,False,3,up,0.16666666666666666,28,0,0.48379640001803637,0.48379640001803637,0.48429930000565946,False,near-rnd3,20,14,8,8.75,1,up,8,1
136,3,True,0.9776839000405744,800.0,50.0,33.0,5,False,2,down,0.16666666666666666,32,0.10495749989058822,0.5656937999883667,0.6706512998789549,0.26670549996197224,True,near-080,20,13,9,8.125,1,down,4,1
137,2,True,0.7148975000018254,800.0,800.0,50.0,0,False,0,up,0.16666666666666666,24,0,0.4164044000208378,0.4164044000208378,0.47991300001740456,True,near-rndm,20,3,3,1.875,1,up,4,0
138,2,True,0.8625486999517307,800.0,50.0,33.0,0,False,2,up,0.16666666666666666,28,0,0.4976211000466719,0.4976211000466719,0.4353582999901846,True,near-000,20,14,9,8.75,1,up,8,1
139,2,True,0.8891866999911144,800.0,100.0,50.0,0,False,1,down,0.16666666666666666,12,0,0.23717010009568185,0.23717010009568185,0.7140504000708461,False,near-rnd2,20,7,3,4.375,1,down,4,0
140,3,True,0.9651651999447495,800.0,50.0,33.0,10,False,2,up,0.16666666666666666,26,0.1799180000089109,0.48068140004761517,0.6605994000565261,0.42014729999937117,True,near-160,20,6,5,3.75,2,up,2,0
141,1,True,1.1763726000208408,800.0,50.0,33.0,5,False,2,down,0.16666666666666666,32,0.08883199992123991,0.5546924999216571,0.6435244998428971,0.33223920001182705,False,near-080,21,14,9,8.75,1,down,4,1
142,1,True,0.9113474000478163,800.0,50.0,33.0,15,False,2,up,0.16666666666666666,14,0.24932069994974881,0.2613660000497475,0.5106866999994963,0.8774530999362469,True,near-240,21,6,3,3.75,2,up,2,0
143,2,True,0.6665657999692485,800.0,33.0,50.0,0,False,3,up,0.16666666666666666,28,0,0.4818056001095101,0.4818056001095101,0.8317229000385851,True,near-rnd3,21,15,9,9.375,1,up,8,1
144,1,True,2.2138432000065222,800.0,100.0,50.0,0,False,1,up,0.16666666666666666,14,0,0.2608161000534892,0.2608161000534892,1.2316577000310645,False,near-rnd2,21,1,0,0.625,1,up,2,0
145,1,True,0.7774352000560611,800.0,800.0,50.0,0,False,0,down,0.16666666666666666,22,0,0.3807831999147311,0.3807831999147311,0.7046424000291154,False,near-rndm,21,1,0,0.625,1,down,2,0
146,2,True,1.060786599991843,800.0,50.0,33.0,10,False,2,up,0.16666666666666666,26,0.18030819995328784,0.4801825999747962,0.660490799928084,0.34242619993165135,True,near-160,21,7,6,4.375,2,up,2,0
147,2,True,0.9293417999288067,800.0,50.0,33.0,0,False,2,up,0.16666666666666666,28,0,0.49470499996095896,0.49470499996095896,0.4377450000029057,True,near-000,21,15,10,9.375,1,up,8,1
148,2,True,0.8398304999573156,800.0,100.0,50.0,0,False,1,up,0.16666666666666666,14,0,0.2843035999685526,0.2843035999685526,0.8949675998883322,True,near-rnd2,22,2,1,1.25,2,up,2,0
149,2,True,0.8224705000175163,800.0,50.0,33.0,0,False,2,up,0.16666666666666666,28,0,0.49763210001401603,0.49763210001401603,0.3960712000261992,True,near-000,22,16,11,10.0,1,up,8,1
150,2,True,0.8323057999368757,800.0,800.0,50.0,0,False,0,down,0.16666666666666666,22,0,0.3905195000115782,0.3905195000115782,0.6276951000327244,False,near-rndm,22,2,0,1.25,2,down,2,0
151,4,True,1.8307090000016615,800.0,50.0,33.0,10,False,2,up,0.16666666666666666,26,0.189658600022085,0.47864049999043345,0.6682991000125185,0.2718664000276476,True,near-160,22,8,7,5.0,2,up,2,0
152,1,True,1.2349531999789178,800.0,50.0,33.0,15,False,2,up,0.16666666666666666,14,0.2536734000314027,0.2666686999145895,0.5203420999459922,0.7206040000310168,True,near-240,22,7,4,4.375,2,up,2,0
153,3,True,0.9682284999871626,800.0,33.0,50.0,0,False,3,up,0.16666666666666666,28,0,0.49036910000722855,0.49036910000722855,0.8095965000102296,False,near-rnd3,22,16,9,10.0,1,up,8,1
154,3,True,1.0398023000452667,800.0,50.0,33.0,5,False,2,down,0.16666666666666666,32,0.09694079996552318,0.5642494999337941,0.6611902998993173,0.2866504000267014,True,near-080,22,15,10,9.375,1,down,4,1
155,3,True,0.7369655999355018,800.0,100.0,50.0,0,False,1,up,0.16666666666666666,14,0,0.2913144000340253,0.2913144000340253,0.58877119992394,True,near-rnd2,23,3,2,1.875,2,up,2,0
156,1,True,1.0401797000085935,800.0,50.0,33.0,0,False,2,up,0.16666666666666666,28,0,0.48217039997689426,0.48217039997689426,0.4906698000850156,True,near-000,23,17,12,10.625,1,up,8,2
157,2,True,0.9604874000651762,800.0,50.0,33.0,5,False,2,down,0.16666666666666666,32,0.09495689999312162,0.5591529000084847,0.6541098000016063,0.316937500028871,True,near-080,23,16,11,10.0,1,down,4,1
158,4,True,0.9030976000940427,800.0,33.0,50.0,0,False,3,up,0.16666666666666666,28,0,0.5077058000024408,0.5077058000024408,0.8358177000191063,False,near-rnd3,23,17,9,10.625,1,up,8,2
159,1,True,1.226964500034228,800.0,50.0,33.0,10,False,2,up,0.16666666666666666,26,0.16893839999102056,0.4590007000369951,0.6279391000280157,0.5736167000140995,True,near-160,23,9,8,5.625,2,up,2,1
160,3,True,0.8675849999999627,800.0,800.0,50.0,0,False,0,down,0.16666666666666666,22,0,0.41455419990234077,0.41455419990234077,0.5154187000589445,True,near-rndm,23,3,1,1.875,2,down,2,0
161,1,True,0.8649710000026971,800.0,50.0,33.0,15,False,2,up,0.16666666666666666,14,0.2511311999987811,0.2668827000306919,0.518013900029473,0.7966130001004785,True,near-240,23,8,5,5.0,2,up,2,0
162,2,True,0.9234884000616148,800.0,100.0,50.0,0,False,1,up,0.16666666666666666,14,0,0.27635259996168315,0.27635259996168315,0.5798114999197423,True,near-rnd2,24,4,3,2.5,2,up,2,0
163,3,True,1.932404699968174,800.0,50.0,33.0,15,False,2,up,0.16666666666666666,14,0.26135180005803704,0.28016379999462515,0.5415156000526622,0.9926849000621587,False,near-240,24,9,5,5.625,2,up,2,1
164,2,True,1.0277677000267431,800.0,50.0,33.0,0,False,2,down,0.16666666666666666,27,0,0.47619710001163185,0.47619710001163185,0.6939092000247911,True,near-000,24,1,1,0.625,1,down,1,0
165,3,True,1.0051360999932513,800.0,33.0,50.0,0,False,3,up,0.16666666666666666,30,0,0.5245939999585971,0.5245939999585971,0.4408928999910131,False,near-rnd3,24,1,0,0.625,1,up,2,0
166,1,True,0.8655701000243425,800.0,800.0,50.0,0,False,0,down,0.16666666666666666,22,0,0.38475839991588145,0.38475839991588145,0.6550163000356406,False,near-rndm,24,4,1,2.5,2,down,2,0
167,3,True,0.7576622000196949,800.0,50.0,33.0,5,False,2,down,0.16666666666666666,32,0.10231000010389835,0.5792934999335557,0.6816035000374541,0.32755549997091293,True,near-080,24,17,12,10.625,1,down,4,2
168,4,True,0.945145700010471,800.0,50.0,33.0,10,False,2,down,0.16666666666666666,25,0.18684470001608133,0.4559732999186963,0.6428179999347776,0.46303580002859235,True,near-160,24,1,1,0.625,2,down,1,0
169,1,True,1.4146117999916896,800.0,100.0,50.0,0,False,1,up,0.16666666666666666,14,0,0.3617963999276981,0.3617963999276981,0.48372689995449036,True,near-rnd2,25,5,4,3.125,2,up,2,0
170,2,True,1.1247849999926984,800.0,50.0,33.0,10,False,2,down,0.16666666666666666,25,0.18247860006522387,0.4550325000891462,0.6375111001543701,0.3885211000451818,False,near-160,25,2,1,1.25,3,down,1,0
171,3,True,0.8612171000568196,800.0,50.0,33.0,15,False,2,up,0.16666666666666666,14,0.26341510005295277,0.29372840002179146,0.5571435000747442,0.5346693999599665,True,near-240,25,10,6,6.25,2,up,2,1
172,2,True,0.9934780999319628,800.0,800.0,50.0,0,False,0,down,0.16666666666666666,22,0,0.3879465999780223,0.3879465999780223,0.8797430000267923,False,near-rndm,25,5,1,3.125,2,down,2,0
173,4,True,0.8284119999734685,800.0,50.0,33.0,0,False,2,down,0.16666666666666666,27,0,0.490290499990806,0.490290499990806,0.38296039996203035,False,near-000,25,2,1,1.25,2,down,1,0
174,1,True,1.0338532000314444,800.0,33.0,50.0,0,False,3,up,0.16666666666666666,30,0,0.5013070000568405,0.5013070000568405,0.4855306000681594,False,near-rnd3,25,2,0,1.25,2,up,2,0
175,2,True,0.874878800008446,800.0,50.0,33.0,5,False,2,down,0.16666666666666666,31,0.09413839993067086,0.5483627999201417,0.6425011998508126,0.3087882000254467,True,near-080,25,1,1,0.625,1,down,1,0
176,1,True,0.9149627999868244,800.0,50.0,33.0,5,False,2,down,0.16666666666666666,31,0.088972800062038,0.5420564999803901,0.6310293000424281,0.3845210999716073,False,near-080,26,2,1,1.25,2,down,1,0
177,5,True,1.854264699970372,800.0,50.0,33.0,0,False,2,down,0.16666666666666666,27,0,0.5194657000247389,0.5194657000247389,0.3699181000702083,True,near-000,26,3,2,1.875,2,down,1,0
178,2,True,0.7326816999120638,800.0,800.0,50.0,0,False,0,up,0.16666666666666666,23,0,0.4038712999317795,0.4038712999317795,0.5743907999712974,True,near-rndm,26,1,1,0.625,2,up,1,0
179,2,True,1.1073437000159174,800.0,50.0,33.0,10,False,2,down,0.16666666666666666,25,0.17570729996077716,0.4562981999479234,0.6320054999087006,0.8817678999621421,True,near-160,26,3,2,1.875,3,down,1,0
180,2,True,2.0525333000114188,800.0,50.0,33.0,15,False,2,up,0.16666666666666666,14,0.2600289999973029,0.28253560001030564,0.5425646000076085,1.1960814000340179,False,near-240,26,11,6,6.875,2,up,2,1
181,4,True,1.038740499992855,800.0,33.0,50.0,0,False,3,up,0.16666666666666666,30,0,0.5326170999323949,0.5326170999323949,0.6123999999836087,False,near-rnd3,26,3,0,1.875,2,up,2,0
182,4,True,0.8146637000609189,800.0,100.0,50.0,0,False,1,up,0.16666666666666666,14,0,0.42054159997496754,0.42054159997496754,0.5314454999752343,True,near-rnd2,26,6,5,3.75,2,up,2,0
183,2,True,0.864924699999392,800.0,50.0,33.0,5,False,2,down,0.16666666666666666,31,0.09634460008237511,0.556228700093925,0.6525733001763001,0.1826854000100866,True,near-080,27,3,2,1.875,2,down,1,0
184,2,True,0.6612887000665069,800.0,33.0,50.0,0,False,3,up,0.16666666666666666,30,0,0.5171689999988303,0.5171689999988303,0.44290010002441704,True,near-rnd3,27,4,1,2.5,2,up,2,0
185,3,True,0.7544030999997631,800.0,50.0,33.0,10,False,2,down,0.16666666666666666,25,0.17961460002698004,0.45099799998570234,0.6306126000126824,0.5638756999978796,True,near-160,27,4,3,2.5,3,down,1,0
186,3,True,0.6424499000422657,800.0,100.0,50.0,0,False,1,up,0.16666666666666666,14,0,0.2842281999764964,0.2842281999764964,0.7902069999836385,False,near-rnd2,27,7,5,4.375,2,up,2,0
187,3,True,1.7519591000163928,800.0,50.0,33.0,15,False,2,up,0.16666666666666666,14,0.2661484000273049,0.2926588000264019,0.5588072000537068,0.4967770000221208,True,near-240,27,12,7,7.5,2,up,2,1
188,3,True,0.8594318999676034,800.0,800.0,50.0,0,False,0,up,0.16666666666666666,23,0,0.4125920000951737,0.4125920000951737,0.8925344999879599,False,near-rndm,27,2,1,1.25,2,up,1,0
189,2,True,0.840406599920243,800.0,50.0,33.0,0,False,2,down,0.16666666666666666,27,0,0.48173919995315373,0.48173919995315373,0.4885647000046447,False,near-000,27,4,2,2.5,2,down,1,0
190,2,True,0.6757879999931902,800.0,800.0,50.0,0,False,0,up,0.16666666666666666,23,0,0.41399489995092154,0.41399489995092154,0.7196235000155866,False,near-rndm,28,3,1,1.875,2,up,1,0
191,4,True,0.792846400057897,800.0,50.0,33.0,0,False,2,down,0.16666666666666666,27,0,0.5127947001019493,0.5127947001019493,0.4734176000347361,True,near-000,28,5,3,3.125,2,down,1,0
192,1,True,1.1363745999988168,800.0,50.0,33.0,15,False,2,up,0.16666666666666666,14,0.2548838999355212,0.2742904999759048,0.529174399911426,0.6389829999534413,False,near-240,28,13,7,8.125,2,up,2,1
193,1,True,0.8711082999361679,800.0,33.0,50.0,0,False,3,up,0.16666666666666666,30,0,0.501289900043048,0.501289900043048,1.2012264999793842,True,near-rnd3,28,5,2,3.125,2,up,2,0
194,3,True,0.910753000061959,800.0,50.0,33.0,5,False,2,down,0.16666666666666666,31,0.10012560000177473,0.548710500006564,0.6488361000083387,0.3376945999916643,True,near-080,28,4,3,2.5,2,down,1,0
195,4,True,0.9819804999278858,800.0,100.0,50.0,0,False,1,up,0.16666666666666666,14,0,0.2984589000698179,0.2984589000698179,0.7670407000696287,False,near-rnd2,28,8,5,5.0,2,up,2,0
196,1,True,1.0617209000047296,800.0,50.0,33.0,10,False,2,down,0.16666666666666666,25,0.17051930003799498,0.4461882999166846,0.6167075999546796,0.8068183000432327,False,near-160,28,5,3,3.125,3,down,1,0
197,2,True,1.1878536000149325,800.0,33.0,50.0,0,False,3,up,0.16666666666666666,30,0,0.5177454999648035,0.5177454999648035,0.9184849000303075,True,near-rnd3,29,6,3,3.75,2,up,2,0
198,2,True,0.8813825999386609,800.0,100.0,50.0,0,False,1,up,0.16666666666666666,14,0,0.2775446999585256,0.2775446999585256,1.0525871999561787,True,near-rnd2,29,9,6,5.625,2,up,2,1
199,2,True,1.0706759999739006,800.0,50.0,33.0,5,False,2,down,0.16666666666666666,31,0.10301149997394532,0.5490273999748752,0.6520388999488205,0.23417409998364747,True,near-080,29,5,4,3.125,2,down,1,0
200,3,True,0.8137837999965996,800.0,50.0,33.0,15,False,2,up,0.16666666666666666,14,0.2688924000831321,0.2982946999836713,0.5671871000668034,0.6936995999421924,False,near-240,29,14,7,8.75,2,up,2,1
201,3,True,0.9421468999935314,800.0,50.0,33.0,0,False,2,down,0.16666666666666666,27,0,0.4811207000166178,0.4811207000166178,0.6268482999876142,True,near-000,29,6,4,3.75,2,down,1,0
202,4,True,0.9452907000668347,800.0,800.0,50.0,0,False,0,up,0.16666666666666666,23,0,0.4367090999148786,0.4367090999148786,0.9259866999927908,False,near-rndm,29,4,1,2.5,2,up,1,0
203,2,True,1.0532687999075279,800.0,50.0,33.0,10,False,2,down,0.16666666666666666,25,0.17472770006861538,0.4482168999966234,0.6229446000652388,1.2727750999620184,False,near-160,29,6,3,3.75,3,down,1,0
204,2,True,1.6272986000403762,800.0,800.0,50.0,0,False,0,up,0.16666666666666666,23,0,0.4176097000017762,0.4176097000017762,1.1224034000188112,True,near-rndm,30,5,2,3.125,2,up,1,0
205,2,True,0.8376427000621334,800.0,50.0,33.0,10,False,2,down,0.16666666666666666,25,0.17280079994816333,0.4515948999905959,0.6243956999387592,0.27121540007647127,True,near-160,30,7,4,4.375,3,down,1,0
206,2,True,0.6404353000689298,800.0,50.0,33.0,5,False,2,down,0.16666666666666666,31,0.098939000046812,0.5459651000564918,0.6449041001033038,0.31835359998513013,True,near-080,30,6,5,3.75,2,down,1,0
207,1,True,0.9835858000442386,800.0,33.0,50.0,0,False,3,up,0.16666666666666666,30,0,0.499189900001511,0.499189900001511,1.2759175000246614,False,near-rnd3,30,7,3,4.375,2,up,2,0
208,1,True,1.5086573000298813,800.0,100.0,50.0,0,False,1,up,0.16666666666666666,14,0,0.2722261999733746,0.2722261999733746,1.1728996000019833,False,near-rnd2,30,10,6,6.25,2,up,2,1
209,2,True,0.7704230999806896,800.0,50.0,33.0,0,False,2,down,0.16666666666666666,27,0,0.4785403999267146,0.4785403999267146,0.5823537999531254,False,near-000,30,7,4,4.375,2,down,1,0
210,1,True,1.2632240999955684,800.0,50.0,33.0,15,False,2,up,0.16666666666666666,14,0.2515891999937594,0.2666265999432653,0.5182157999370247,1.0275831000180915,True,near-240,30,15,8,9.375,2,up,2,1
211,3,True,1.484402499976568,800.0,50.0,33.0,5,False,2,down,0.16666666666666666,31,0.10891440010163933,0.5575736000901088,0.6664880001917481,1.0053894000593573,False,near-080,31,7,5,4.375,2,down,1,0
212,2,True,1.0545605999650434,800.0,100.0,50.0,0,False,1,up,0.16666666666666666,14,0,0.27453380008228123,0.27453380008228123,1.0742239999817684,False,near-rnd2,31,11,6,6.875,2,up,2,1
213,2,True,0.8085665999678895,800.0,33.0,50.0,0,False,3,up,0.16666666666666666,30,0,0.5125858000246808,0.5125858000246808,0.9250122000230476,False,near-rnd3,31,8,3,5.0,2,up,2,0
214,1,True,1.198968300013803,800.0,50.0,33.0,10,False,2,down,0.16666666666666666,25,0.17016390000935644,0.4357134000165388,0.6058773000258952,0.7901392999337986,False,near-160,31,8,4,5.0,3,down,1,0
215,1,True,2.099861800088547,800.0,50.0,33.0,15,False,2,up,0.16666666666666666,14,0.2483664999017492,0.2663358000572771,0.5147022999590263,0.7724834999535233,False,near-240,31,16,8,10.0,2,up,2,1
216,1,True,1.0504031999735162,800.0,50.0,33.0,0,False,2,down,0.16666666666666666,27,0,0.4689636999974027,0.4689636999974027,0.7639461000217125,False,near-000,31,8,4,5.0,2,down,1,0
217,1,True,1.5295305999461561,800.0,800.0,50.0,0,False,0,up,0.16666666666666666,23,0,0.39642759994603693,0.39642759994603693,1.047929699998349,True,near-rndm,31,6,3,3.75,2,up,1,0
218,3,True,1.7536190999671817,800.0,100.0,50.0,0,False,1,up,0.16666666666666666,14,0,0.2801066000247374,0.2801066000247374,0.852479699999094,False,near-rnd2,32,12,6,7.5,2,up,2,1
219,3,True,1.410128299961798,800.0,50.0,33.0,15,False,2,up,0.16666666666666666,14,0.27124869998078793,0.30341769999358803,0.574666399974376,0.7693755000364035,False,near-240,32,17,8,10.625,2,up,2,2
220,1,True,1.0877331000519916,800.0,33.0,50.0,0,False,3,up,0.16666666666666666,30,0,0.5029200999997556,0.5029200999997556,2.146690799971111,False,near-rnd3,32,9,3,5.625,2,up,2,1
221,1,True,4.152132699964568,800.0,800.0,50.0,0,False,0,up,0.16666666666666666,23,0,0.3992045000195503,0.3992045000195503,0.8484581999946386,True,near-rndm,32,7,4,4.375,2,up,1,0
222,3,True,0.740565299987793,800.0,50.0,33.0,5,False,2,down,0.16666666666666666,31,0.09746369998902082,0.5506956999888644,0.6481593999778852,0.3844236999284476,True,near-080,32,8,6,5.0,2,down,1,0
223,2,True,0.8150903999339789,800.0,50.0,33.0,0,False,2,down,0.16666666666666666,27,0,0.4798836000263691,0.4798836000263691,0.5393639999674633,True,near-000,32,9,5,5.625,2,down,1,1
224,1,True,1.0405780000146478,800.0,50.0,33.0,15,False,2,up,0.16666666666666666,15,0.25176940008532256,0.285881599993445,0.5376510000787675,0.39901369996368885,True,near-240,33,1,1,0.625,2,up,1,0
225,3,True,0.9126045999582857,800.0,33.0,50.0,0,False,3,up,0.16666666666666666,32,0,0.5563548000063747,0.5563548000063747,0.4488009000197053,False,near-rnd3,33,1,0,0.625,2,up,2,0
226,2,True,0.7831758999964222,800.0,50.0,33.0,0,False,2,down,0.16666666666666666,27,0,0.4766610999358818,0.4766610999358818,0.5923209999455139,True,near-000,33,10,6,6.25,2,down,1,1
227,1,True,1.2538521999958903,800.0,100.0,50.0,0,False,1,up,0.16666666666666666,14,0,0.2669802000746131,0.2669802000746131,0.6294041000073776,False,near-rnd2,33,13,6,8.125,2,up,2,1
228,1,True,0.9874352000188082,800.0,50.0,33.0,5,False,2,down,0.16666666666666666,31,0.09300120000261813,0.5416735999751836,0.6346747999778017,1.0151428999379277,False,near-080,33,9,6,5.625,2,down,1,1
229,4,True,1.3879796999972314,800.0,800.0,50.0,0,False,0,up,0.16666666666666666,23,0,0.43575419997796416,0.43575419997796416,0.593496699933894,False,near-rndm,33,8,4,5.0,2,up,1,0
230,2,True,0.8733441999647766,800.0,33.0,50.0,0,False,3,up,0.16666666666666666,32,0,0.5525014000013471,0.5525014000013471,1.5868267000187188,False,near-rnd3,34,2,0,1.25,2,up,2,0
231,4,True,0.8268494999501854,800.0,50.0,33.0,15,False,2,up,0.16666666666666666,15,0.2603759999619797,0.3247465000022203,0.5851224999642,1.9900555999483913,False,near-240,34,2,1,1.25,3,up,1,0
232,2,True,1.268157699960284,800.0,50.0,33.0,5,False,2,down,0.16666666666666666,31,0.0974912999663502,0.5444270999869332,0.6419183999532834,0.49511989997699857,True,near-080,34,10,7,6.25,2,down,1,1
233,4,True,0.7052663000067696,800.0,50.0,33.0,0,False,2,down,0.16666666666666666,27,0,0.510892599937506,0.510892599937506,0.5976592999650165,True,near-000,34,11,7,6.875,2,down,1,1
234,1,True,1.4728998999344185,800.0,800.0,50.0,0,False,0,up,0.16666666666666666,23,0,0.4008741000434384,0.4008741000434384,2.0178356000687927,True,near-rndm,34,9,5,5.625,2,up,1,1
235,3,True,1.7389975000405684,800.0,100.0,50.0,0,False,1,up,0.16666666666666666,15,0,0.308176500024274,0.308176500024274,4.032357799937017,True,near-rnd2,34,1,1,0.625,2,up,1,0
236,1,True,0.9529553999891505,800.0,50.0,33.0,15,False,2,up,0.16666666666666666,15,0.252617200021632,0.29096349992323667,0.5435806999448687,0.6764485000167042,False,near-240,35,3,1,1.875,3,up,1,0
237,1,True,0.811214999994263,800.0,50.0,33.0,0,False,2,down,0.16666666666666666,27,0,0.46485430002212524,0.46485430002212524,0.5999952999409288,True,near-000,35,12,8,7.5,2,down,1,1
238,3,True,0.9522265000268817,800.0,50.0,33.0,5,False,2,down,0.16666666666666666,31,0.10274000000208616,0.5662076999433339,0.66894769994542,0.21844700002111495,True,near-080,35,11,8,6.875,2,down,1,1
239,1,True,1.0114673000061885,800.0,100.0,50.0,0,False,1,up,0.16666666666666666,15,0,0.2772207000525668,0.2772207000525668,0.7813523999648169,True,near-rnd2,35,2,2,1.25,2,up,1,0
240,1,True,0.9255081000737846,800.0,33.0,50.0,0,False,3,up,0.16666666666666666,32,0,0.5317871000152081,0.5317871000152081,0.6535742999985814,True,near-rnd3,35,3,1,1.875,2,up,2,0
241,3,True,1.3898038000334054,800.0,800.0,50.0,0,False,0,up,0.16666666666666666,23,0,0.42574349988717586,0.42574349988717586,0.7929994000587612,False,near-rndm,35,10,5,6.25,2,up,1,1
242,3,True,1.3881118000717834,800.0,50.0,33.0,5,False,2,down,0.16666666666666666,31,0.10560560005251318,0.5547848999267444,0.6603904999792576,2.0840428000083193,True,near-080,36,12,9,7.5,2,down,1,1
243,3,True,0.6923637000145391,800.0,100.0,50.0,0,False,1,up,0.16666666666666666,15,0,0.41353180003352463,0.41353180003352463,0.7053640999365598,True,near-rnd2,36,3,3,1.875,2,up,1,0
244,4,True,1.1809451000299305,800.0,50.0,33.0,0,False,2,down,0.16666666666666666,27,0,0.5547739999601617,0.5547739999601617,0.882486299960874,True,near-000,36,13,9,8.125,2,down,1,1
245,2,True,1.6355513000162318,800.0,33.0,50.0,0,False,3,up,0.16666666666666666,32,0,0.5479018999030814,0.5479018999030814,1.9644454000517726,True,near-rnd3,36,4,2,2.5,2,up,2,0
246,1,True,2.289477900019847,800.0,800.0,50.0,0,False,0,up,0.16666666666666666,23,0,0.39985399995930493,0.39985399995930493,3.9247687999159098,False,near-rndm,36,11,5,6.875,2,up,1,1
247,1,True,1.739926099893637,800.0,50.0,33.0,15,False,2,up,0.16666666666666666,15,0.2519972000736743,0.28643139998894185,0.5384286000626162,0.504330699914135,True,near-240,36,4,2,2.5,3,up,1,0
248,3,True,1.0853077999781817,800.0,33.0,50.0,0,False,3,up,0.16666666666666666,32,0,0.5571267000632361,0.5571267000632361,0.5309426999883726,True,near-rnd3,37,5,3,3.125,2,up,2,0
249,1,True,1.1719338999828324,800.0,100.0,50.0,0,False,1,up,0.16666666666666666,15,0,0.2751335999928415,0.2751335999928415,0.885032800026238,False,near-rnd2,37,4,3,2.5,2,up,1,0
250,1,True,1.4282936999807134,800.0,50.0,33.0,5,False,2,down,0.16666666666666666,31,0.08814629993867129,0.5371309999609366,0.6252772998996079,0.34317060001194477,True,near-080,37,13,10,8.125,2,down,1,1
251,3,True,0.9876257000723854,800.0,50.0,33.0,15,False,2,up,0.16666666666666666,15,0.26422539993654937,0.30465099995490164,0.568876399891451,1.3677994000026956,False,near-240,37,5,2,3.125,3,up,1,0
252,4,True,0.823565199971199,800.0,800.0,50.0,0,False,0,up,0.16666666666666666,23,0,0.4341355999931693,0.4341355999931693,0.4635940999723971,True,near-rndm,37,12,6,7.5,2,up,1,1
253,2,True,0.7507823000196368,800.0,50.0,33.0,0,False,2,down,0.16666666666666666,27,0,0.48087970004417,0.48087970004417,0.325459000072442,True,near-000,37,14,10,8.75,2,down,1,1
254,2,True,0.8695818000705913,800.0,50.0,33.0,0,False,2,down,0.16666666666666666,27,0,0.4743912999983877,0.4743912999983877,0.5725196999264881,True,near-000,38,15,11,9.375,2,down,1,1
255,1,True,1.042878800071776,800.0,50.0,33.0,15,False,2,up,0.16666666666666666,15,0.2523925000568852,0.2774666000623256,0.5298591001192108,0.43785119999665767,True,near-240,38,6,3,3.75,3,up,1,0
256,2,True,1.647220499929972,800.0,800.0,50.0,0,False,0,up,0.16666666666666666,23,0,0.4130041999742389,0.4130041999742389,0.635905799921602,True,near-rndm,38,13,7,8.125,2,up,1,1
257,2,True,0.9416727999923751,800.0,50.0,33.0,5,False,2,down,0.16666666666666666,31,0.09670799993909895,0.5477397999493405,0.6444477998884395,3.089812600053847,False,near-080,38,14,10,8.75,2,down,1,1
258,3,True,0.7998373999726027,800.0,100.0,50.0,0,False,1,up,0.16666666666666666,15,0,0.30673049995675683,0.30673049995675683,0.617038800031878,True,near-rnd2,38,5,4,3.125,2,up,1,0
259,3,True,1.083470999961719,800.0,33.0,50.0,0,False,3,up,0.16666666666666666,32,0,0.5617252999218181,0.5617252999218181,0.451393699971959,False,near-rnd3,38,6,3,3.75,2,up,2,0
260,1,True,1.069156999932602,800.0,50.0,33.0,5,False,2,down,0.16666666666666666,31,0.08770849998109043,0.5337111001135781,0.6214196000946686,0.3909319000085816,True,near-080,39,15,11,9.375,2,down,1,1
261,2,True,1.1636150000849739,800.0,100.0,50.0,0,False,1,up,0.16666666666666666,15,0,0.2933814999414608,0.2933814999414608,0.6694693999597803,True,near-rnd2,39,6,5,3.75,2,up,1,0
262,2,True,0.6091218000510707,800.0,800.0,50.0,0,False,0,up,0.16666666666666666,23,0,0.4035446000052616,0.4035446000052616,1.1010245999787003,False,near-rndm,39,14,7,8.75,2,up,1,1
263,3,True,0.7350148999830708,800.0,50.0,33.0,15,False,2,up,0.16666666666666666,15,0.2625925000756979,0.30075850000139326,0.5633510000770912,1.3114081000676379,False,near-240,39,7,3,4.375,3,up,1,0
264,3,True,3.611870300024748,800.0,33.0,50.0,0,False,3,up,0.16666666666666666,32,0,0.5434567000484094,0.5434567000484094,5.656505800085142,False,near-rnd3,39,7,3,4.375,2,up,2,0
265,2,True,1.118327800068073,800.0,50.0,33.0,0,False,2,down,0.16666666666666666,27,0,0.47553749999497086,0.47553749999497086,0.5743740000762045,True,near-000,39,16,12,10.0,2,down,1,1
266,2,True,1.1515261000022292,800.0,800.0,50.0,0,False,0,up,0.16666666666666666,23,0,0.4099216000176966,0.4099216000176966,0.5641225998988375,True,near-rndm,40,15,8,9.375,2,up,1,1
267,2,True,1.332238500006497,800.0,50.0,33.0,5,False,2,down,0.16666666666666666,31,0.09960259997751564,0.5474824999691918,0.6470850999467075,0.5914929000427946,True,near-080,40,16,12,10.0,2,down,1,1
268,5,True,1.1528002000413835,800.0,33.0,50.0,0,False,3,up,0.16666666666666666,32,0,0.5761971999891102,0.5761971999891102,0.661415999988094,False,near-rnd3,40,8,3,5.0,2,up,2,0
269,1,True,1.2430688999593258,800.0,50.0,33.0,15,False,2,up,0.16666666666666666,15,0.247398899984546,0.2833115999819711,0.5307104999665171,0.560526299988851,False,near-240,40,8,3,5.0,3,up,1,0
