trial,primeCorrect,primeTime,primeDepth,stimDepth,diopters,nearToFar,direction,size,intensity,requestedLatency,actualLatency,responseTime,correct,caseLabel,caseTrial,trialsAtStep,stepCorrect,expected,w,direction,stepsize,stepChange
1,True,0,50.0,100.0,1,True,start,0.25,60,0.96,0,0,True,near_1,1,1,1,0.625,0.5,start,16,0
2,True,0,33.0,33.0,0,True,start,0.25,60,0.96,0,0,True,near_0,1,1,1,0.625,0.5,start,16,0
3,True,0,50.0,800.0,2,True,start,0.25,60,0.96,0,50.652217299997574,True,near_2,1,1,1,0.625,0.5,start,16,0
4,True,50.652212999993935,100.0,50.0,1,False,start,0.25,60,0.96,50.652215999987675,50.652217299997574,True,far_1,1,1,1,0.625,0.5,start,16,0
5,True,50.652212999993935,33.0,800.0,3,True,start,0.25,60,0.96,50.652215999987675,11.45347639999818,True,near_3,1,1,1,0.625,0.5,start,16,0
6,True,11.453476499998942,800.0,33.0,3,False,start,0.25,60,0.96,11.453476400012732,55.873129599989625,True,far_3,1,1,1,0.625,0.5,start,16,0
7,True,55.8731254000013,100.0,33.0,2,False,start,0.25,60,0.96,55.873128299979726,55.873129599989625,True,far_2,1,1,1,0.625,0.5,start,16,0
8,True,55.8731254000013,100.0,33.0,2,False,start,0.25,44,0.704,55.873128299979726,55.873129599989625,True,far_2,2,1,1,0.625,1.0,start,16,0
9,True,55.8731254000013,800.0,33.0,3,False,start,0.25,44,0.704,55.873128299979726,26.80733140000666,True,far_3,2,1,1,0.625,1.0,start,16,0
10,True,26.80733139999211,50.0,100.0,1,True,start,0.25,44,0.704,26.80733140000666,26.80733140000666,True,near_1,2,1,1,0.625,1.0,start,16,0
11,True,26.80733139999211,33.0,100.0,2,True,start,0.25,44,0.704,26.80733140000666,26.80733140000666,True,near_2,2,1,1,0.625,1.0,start,16,0
12,True,26.80733139999211,33.0,800.0,3,True,start,0.25,44,0.704,26.80733140000666,66.67826849999256,True,near_3,2,1,1,0.625,1.0,start,16,0
13,True,66.6782641000027,50.0,50.0,0,True,start,0.25,44,0.704,66.67826719998266,66.67826849999256,True,near_0,2,1,1,0.625,1.0,start,16,0
14,True,66.6782641000027,800.0,100.0,1,False,start,0.25,44,0.704,66.67826719998266,34.194455300006666,True,far_1,2,1,1,0.625,1.0,start,16,0
15,True,34.1944555999944,800.0,100.0,1,False,start,0.25,28,0.448,34.194455300006666,69.71361799997976,True,far_1,3,1,1,0.625,1.0,start,16,0
16,True,69.71361229999457,33.0,800.0,3,True,start,0.25,28,0.448,69.71361649998289,37.63989540001785,False,near_3,3,1,0,0.625,1.0,start,16,0
17,True,37.6398474000016,800.0,800.0,0,True,start,0.25,28,0.448,37.6398954000033,73.42084029997932,True,near_0,3,1,1,0.625,1.0,start,16,0
18,True,73.42088389999117,800.0,50.0,2,False,start,0.25,28,0.448,73.42083899998397,45.07967680001457,True,far_2,3,1,1,0.625,1.0,start,16,0
19,True,45.079629200001364,800.0,33.0,3,False,start,0.25,28,0.448,45.07967690001533,80.30943889997434,True,far_3,3,1,1,0.625,1.0,start,16,0
20,True,80.30948169999465,100.0,800.0,1,True,start,0.25,28,0.448,80.30943719997595,47.48606920002203,True,near_1,3,1,1,0.625,1.0,start,16,0
21,True,47.48602129999199,33.0,100.0,2,True,start,0.25,28,0.448,47.486069500024314,47.48606920002203,True,near_2,3,1,1,0.625,1.0,start,16,0
22,True,47.48602129999199,33.0,800.0,3,True,up,0.25,44,0.704,47.486069500024314,87.01691689997097,True,near_3,4,1,1,0.625,0.5,up,16,0
23,True,87.01696029999584,800.0,50.0,2,False,start,0.25,12,0.192,87.01691529997333,51.133557500026654,True,far_2,4,1,1,0.625,0.5,start,16,0
24,True,51.13350979999814,800.0,100.0,1,False,start,0.25,12,0.192,51.13355790001515,91.51068729996041,True,far_1,4,1,1,0.625,0.5,start,16,0
25,True,91.51073009999527,33.0,50.0,1,True,start,0.25,12,0.192,91.5106854999758,91.51068729996041,False,near_1,4,1,0,0.625,0.5,start,16,0
26,True,91.51073009999527,800.0,33.0,3,False,start,0.25,12,0.192,91.5106854999758,60.49348670002655,False,far_3,4,1,0,0.625,0.5,start,16,0
27,True,60.49343919999956,800.0,800.0,0,True,start,0.25,12,0.192,60.493487100015045,97.90075829996204,True,near_0,4,1,1,0.625,0.5,start,16,0
28,True,97.90080119999766,33.0,100.0,2,True,start,0.25,12,0.192,97.90075649997743,97.90075829996204,False,near_2,4,1,0,0.625,0.5,start,16,0
29,True,97.90080119999766,100.0,100.0,0,True,start,0.25,0,0.0,97.90075649997743,97.90075829996204,False,near_0,5,1,0,0.625,0.5,start,16,0
30,True,97.90080119999766,100.0,33.0,2,False,start,0.25,0,0.0,97.90075649997743,97.90075829996204,False,far_2,5,1,0,0.625,0.5,start,16,0
31,True,97.90080119999766,100.0,800.0,1,True,up,0.25,28,0.448,97.90075649997743,81.65251610003179,True,near_1,5,1,1,0.625,0.5,up,16,0
32,True,81.65246839998872,33.0,800.0,3,True,up,0.25,44,0.704,81.65251660002104,104.46699319996696,True,near_3,5,2,2,1.25,1.0,up,16,0
33,True,104.46703620000335,800.0,33.0,3,False,up,0.25,28,0.448,104.46699119996629,84.72132500002044,False,far_3,5,1,0,0.625,0.5,up,16,0
34,True,84.72127769999497,50.0,33.0,1,False,start,0.25,0,0.0,84.72132580002653,84.72132500002044,False,far_1,5,1,0,0.625,0.5,start,16,0
35,True,84.72127769999497,50.0,800.0,2,True,up,0.25,28,0.448,84.72132580002653,111.17679859997588,True,near_2,5,1,1,0.625,0.5,up,16,0
36,True,111.17684159999772,800.0,33.0,3,False,up,0.25,28,0.448,111.17679649995989,87.54874670002027,True,far_3,6,2,1,1.25,1.0,up,16,0
37,True,87.54869959999633,100.0,33.0,2,False,up,0.25,16,0.256,87.54874760002713,87.54874670002027,True,far_2,6,1,1,0.625,0.5,up,16,0
38,True,87.54869959999633,800.0,800.0,0,True,up,0.25,16,0.256,87.54874760002713,123.42298639997898,True,near_0,6,1,1,0.625,0.5,up,16,0
39,True,123.42302930000005,33.0,800.0,3,True,up,0.25,44,0.704,123.42298389995995,90.9026902000187,True,near_3,6,3,3,1.875,1.0,up,16,0
40,True,90.9026426999917,800.0,100.0,1,False,up,0.25,16,0.256,90.90269140002783,125.85118989997136,True,far_1,6,1,1,0.625,0.5,up,16,0
41,True,125.85123290000774,33.0,100.0,2,True,up,0.25,28,0.448,125.85118729996611,125.85118989997136,True,near_2,6,2,2,1.25,1.0,up,16,0
42,True,125.85123290000774,50.0,100.0,1,True,up,0.25,28,0.448,125.85118729996611,125.85118989997136,True,near_1,6,2,2,1.25,1.0,up,16,0
43,True,125.85123290000774,33.0,800.0,3,True,down,0.25,28,0.448,125.85118729996611,100.55283620001865,False,near_3,7,1,0,0.625,0.5,down,8,0
44,True,100.55278889997862,800.0,33.0,3,False,up,0.25,28,0.448,100.55283750002855,127.9652862999792,True,far_3,7,3,2,1.875,1.0,up,16,0
45,True,127.96532930001558,100.0,50.0,1,False,up,0.25,16,0.256,127.96528359995864,127.9652862999792,False,far_1,7,2,1,1.25,1.0,up,16,0
46,True,127.96532930001558,800.0,50.0,2,False,up,0.25,16,0.256,127.96528359995864,106.87833670001419,True,far_2,7,2,2,1.25,1.0,up,16,0
47,True,106.87828919997264,50.0,50.0,0,True,up,0.25,16,0.256,106.87833800003864,106.87833670001419,True,near_0,7,2,2,1.25,1.0,up,16,0
48,True,106.87828919997264,50.0,800.0,2,True,up,0.25,28,0.448,106.87833800003864,133.38285309997445,False,near_2,7,3,2,1.875,1.0,up,16,0
49,True,133.3828958000231,50.0,100.0,1,True,up,0.25,28,0.448,133.38285049995466,133.38285309997445,True,near_1,7,3,3,1.875,1.0,up,16,0
50,True,133.3828958000231,33.0,800.0,3,True,down,0.25,28,0.448,133.38285049995466,113.87742990002153,True,near_3,8,2,1,1.25,1,down,8,0
51,True,113.87738279996847,100.0,33.0,2,False,up,0.25,16,0.256,113.87743120003142,113.87742990002153,False,far_2,8,3,2,1.875,1.0,up,16,0
52,True,113.87738279996847,800.0,33.0,3,False,up,0.25,28,0.448,113.87743120003142,145.09124249996967,True,far_3,8,4,3,2.5,0.5,up,16,0
53,True,145.09128520001832,100.0,50.0,1,False,up,0.25,16,0.256,145.09123989996442,145.09124249996967,False,far_1,8,3,1,1.875,1.0,up,16,0
54,True,145.09128520001832,50.0,800.0,2,True,up,0.25,28,0.448,145.09123989996442,119.13678510002501,False,near_2,8,4,2,2.5,0.5,up,16,0
55,True,119.1367378999712,100.0,800.0,1,True,down,0.25,12,0.192,119.13678630003415,148.02273529996455,True,near_1,8,1,1,0.625,0.5,down,8,0
56,True,148.02277800002776,50.0,50.0,0,True,up,0.25,16,0.256,148.02273289996083,148.02273529996455,True,near_0,8,3,3,1.875,1.0,up,16,0
57,True,148.02277800002776,33.0,100.0,2,True,up,0.25,28,0.448,148.02273289996083,148.02273529996455,True,near_2,9,5,3,3.125,0.5,up,16,0
58,True,148.02277800002776,800.0,33.0,3,False,up,0.25,28,0.448,148.02273289996083,129.2583769000339,False,far_3,9,5,3,3.125,0.5,up,16,0
59,True,129.25832999996783,800.0,50.0,2,False,up,0.25,16,0.256,129.25837790002697,152.20623039995553,True,far_2,9,4,3,2.5,0.5,up,16,0
60,True,152.206272800031,33.0,50.0,1,True,down,0.25,12,0.192,152.20622809996712,152.20623039995553,True,near_1,9,2,2,1.25,1,down,8,0
61,True,152.206272800031,33.0,800.0,3,True,down,0.25,28,0.448,152.20622809996712,136.71536790003302,False,near_3,9,3,1,1.875,1,down,8,0
62,True,136.71532069996465,50.0,50.0,0,True,down,0.25,0,0.0,136.71536880002532,136.71536790003302,False,near_0,9,1,0,0.625,0.5,down,8,0
63,True,136.71532069996465,50.0,33.0,1,False,up,0.25,32,0.512,136.71536880002532,136.71536790003302,True,far_1,9,1,1,0.625,0.5,up,16,0
64,True,136.71532069996465,100.0,800.0,1,True,down,0.25,12,0.192,136.71536880002532,163.16854539996712,False,near_1,10,3,2,1.875,1,down,8,0
65,True,163.16858770002727,800.0,33.0,3,False,up,0.25,28,0.448,163.16854309996415,141.0588782000268,True,far_3,10,6,4,3.75,0.5,up,16,0
66,True,141.05883149996225,33.0,800.0,3,True,down,0.25,28,0.448,141.05887910003366,168.28716249996796,False,near_3,10,4,1,2.5,1,down,8,0
67,True,168.28720390003582,800.0,100.0,1,False,up,0.25,32,0.512,168.28715979996196,147.54444000002695,True,far_1,10,2,2,1.25,1.0,up,16,0
68,True,147.54439379995165,800.0,50.0,2,False,up,0.25,16,0.256,147.54444130003685,177.75095779997355,False,far_2,10,5,3,3.125,0.5,up,16,0
69,True,177.75099980004597,50.0,800.0,2,True,up,0.25,28,0.448,177.75095519995375,150.6263671000197,True,near_2,10,6,4,3.75,0.5,up,16,0
70,True,150.6263208999444,33.0,33.0,0,True,down,0.25,0,0.0,150.62636840004416,150.6263671000197,True,near_0,10,2,1,1.25,1,down,8,0
71,True,150.6263208999444,50.0,33.0,1,False,up,0.25,32,0.512,150.62636840004416,150.6263671000197,True,far_1,11,3,3,1.875,1.0,up,16,0
72,True,150.6263208999444,800.0,33.0,3,False,up,0.25,28,0.448,150.62636840004416,195.55094959997223,True,far_3,11,7,5,4.375,0.5,up,16,0
73,True,195.5509915000439,100.0,33.0,2,False,up,0.25,16,0.256,195.55094689995167,195.55094959997223,True,far_2,11,6,4,3.75,0.5,up,16,0
74,True,195.5509915000439,33.0,800.0,3,True,up,0.25,36,0.5760000000000001,195.55094689995167,160.80556610002532,False,near_3,11,1,0,0.625,1,up,4,0
75,True,160.80551979994925,33.0,50.0,1,True,down,0.25,12,0.192,160.80556730003445,160.80556610002532,False,near_1,11,4,2,2.5,1,down,8,0
76,True,160.80551979994925,50.0,800.0,2,True,up,0.25,28,0.448,160.80556730003445,200.5507823999651,True,near_2,11,7,5,4.375,0.5,up,16,0
77,True,200.55082430003677,100.0,100.0,0,True,down,0.25,0,0.0,200.55077959995833,200.5507823999651,True,near_0,11,3,2,1.875,1,down,8,0
78,True,200.55082430003677,33.0,800.0,3,True,up,0.25,36,0.5760000000000001,200.55077959995833,174.5706772000267,True,near_3,12,2,1,1.25,1,up,4,0
79,True,174.57063089995063,800.0,50.0,2,False,up,0.25,16,0.256,174.57067860003735,207.06101439996564,False,far_2,12,7,4,4.375,0.5,up,16,0
80,True,207.06105620003655,33.0,100.0,2,True,down,0.25,12,0.192,207.06101159995887,207.06101439996564,False,near_2,12,1,0,0.625,0.5,down,8,0
81,True,207.06105620003655,800.0,33.0,3,False,down,0.25,12,0.192,207.06101159995887,184.45897630002582,False,far_3,12,1,0,0.625,0.5,down,8,0
82,True,184.45892989996355,800.0,800.0,0,True,down,0.25,0,0.0,184.45897770003648,212.0058043999743,False,near_0,12,4,2,2.5,1,down,8,0
83,True,212.00584650003293,800.0,100.0,1,False,down,0.25,16,0.256,212.00580169995374,190.01092250001966,True,far_1,12,1,1,0.625,0.5,down,8,0
84,True,190.01087639995967,100.0,800.0,1,True,down,0.25,12,0.192,190.01092390004487,219.18470469997555,True,near_1,12,5,3,3.125,1,down,8,0
85,True,219.18474660003267,33.0,50.0,1,True,down,0.25,12,0.192,219.1847020999412,219.18470469997555,True,near_1,13,6,4,3.75,1,down,8,0
86,True,219.18474660003267,33.0,100.0,2,True,down,0.25,12,0.192,219.1847020999412,219.18470469997555,True,near_2,13,2,1,1.25,1,down,8,0
87,True,219.18474660003267,100.0,33.0,2,False,up,0.25,16,0.256,219.1847020999412,219.18470469997555,True,far_2,13,8,5,5.0,0.5,up,16,0
88,True,219.18474660003267,800.0,33.0,3,False,down,0.25,12,0.192,219.1847020999412,208.08027810002386,False,far_3,13,2,0,1.25,1,down,8,0
89,True,208.0802318999631,33.0,800.0,3,True,up,0.25,36,0.5760000000000001,208.08027930004755,221.92794259997027,False,near_3,13,3,1,1.875,1,up,4,0
90,True,221.92798430002586,800.0,100.0,1,False,down,0.25,16,0.256,221.92794009995123,212.94675170001574,True,far_1,13,2,2,1.25,1,down,8,0
91,True,212.94670589997259,33.0,33.0,0,True,down,0.25,0,0.0,212.9467527000379,212.94675170001574,False,near_0,13,5,2,3.125,1,down,8,0
92,True,212.94670589997259,50.0,800.0,2,True,down,0.25,12,0.192,212.9467527000379,228.2708412999782,False,near_2,14,3,1,1.875,1,down,8,0
93,True,228.27088270001695,50.0,100.0,1,True,down,0.25,12,0.192,228.2708389999607,228.2708412999782,True,near_1,14,7,5,4.375,1,down,8,0
94,True,228.27088270001695,33.0,800.0,3,True,up,0.25,36,0.5760000000000001,228.2708389999607,220.79769820001093,True,near_3,14,4,2,2.5,1,up,4,0
95,True,220.79765199997928,800.0,50.0,2,False,up,0.25,16,0.256,220.79769900003157,232.37997819998418,False,far_2,14,9,5,5.625,0.5,up,16,1
96,True,232.38002020001295,50.0,50.0,0,True,up,0.25,8,0.128,232.3799760999682,232.37997819998418,True,near_0,14,1,1,0.625,1,up,4,0
97,True,232.38002020001295,800.0,100.0,1,False,down,0.25,16,0.256,232.3799760999682,225.46486270001333,True,far_1,14,3,3,1.875,1,down,8,0
98,True,225.46481549997407,800.0,33.0,3,False,up,0.25,20,0.32,225.4648633000179,243.00009889998182,True,far_3,14,1,1,0.625,1,up,4,0
99,True,243.0001419000182,50.0,100.0,1,True,down,0.25,12,0.192,243.00009689998114,243.00009889998182,False,near_1,15,8,5,5.0,1,down,8,0
100,True,243.0001419000182,800.0,33.0,3,False,up,0.25,20,0.32,243.00009689998114,233.24082550000458,True,far_3,15,2,2,1.25,1,up,4,0
101,True,233.2407781999791,50.0,800.0,2,True,down,0.25,12,0.192,233.24082610000914,245.4360869999946,False,near_2,15,4,1,2.5,1,down,8,0
102,True,245.43612990001566,100.0,33.0,2,False,up,0.25,24,0.384,245.43608499997936,245.4360869999946,True,far_2,15,1,1,0.625,0.5,up,8,0
103,True,245.43612990001566,100.0,50.0,1,False,down,0.25,8,0.128,245.43608499997936,245.4360869999946,True,far_1,15,1,1,0.625,1,down,8,0
104,True,245.43612990001566,800.0,800.0,0,True,up,0.25,8,0.128,245.43608499997936,240.58289399999194,True,near_0,15,2,2,1.25,1,up,4,0
105,True,240.58284689998254,33.0,800.0,3,True,up,0.25,36,0.5760000000000001,240.58289480001258,248.64496780000627,False,near_3,15,5,2,3.125,1,up,4,0
106,True,248.6450104000105,100.0,50.0,1,False,down,0.25,8,0.128,248.6449657999765,248.64496780000627,True,far_1,16,2,2,1.25,1,down,8,0
107,True,248.6450104000105,50.0,800.0,2,True,up,0.25,20,0.32,248.6449657999765,249.82622419999097,False,near_2,16,1,0,0.625,1,up,4,0
108,True,249.82617669997853,100.0,800.0,1,True,down,0.25,12,0.192,249.8262248000101,251.72661779999908,True,near_1,16,9,6,5.625,1,down,8,1
109,True,251.72666070002015,800.0,33.0,3,False,up,0.25,20,0.32,251.7266158999846,253.36126339998737,True,far_3,16,3,3,1.875,1,up,4,0
110,True,253.36121609997645,33.0,800.0,3,True,up,0.25,40,0.64,253.36126390000572,255.94357909999962,True,near_3,16,1,1,0.625,1,up,4,0
111,True,255.9436217000184,100.0,33.0,2,False,up,0.25,24,0.384,255.94357719998516,255.94357909999962,True,far_2,16,2,2,1.25,1,up,8,0
112,True,255.9436217000184,50.0,50.0,0,True,up,0.25,8,0.128,255.94357719998516,255.94357909999962,False,near_0,16,3,2,1.875,1,up,4,0
113,True,255.9436217000184,100.0,800.0,1,True,down,0.25,12,0.192,255.94357719998516,266.2560547999892,False,near_1,17,10,6,6.25,1,down,8,1
114,True,266.25600789998134,800.0,800.0,0,True,up,0.25,8,0.128,266.2560555000091,260.4500082000013,True,near_0,17,4,3,2.5,1,up,4,0
115,True,260.45005040001706,100.0,50.0,1,False,down,0.25,8,0.128,260.45000609998533,260.4500082000013,True,far_1,17,3,3,1.875,1,down,8,0
116,True,260.45005040001706,800.0,33.0,3,False,down,0.25,16,0.256,260.45000609998533,272.51559739999357,True,far_3,17,1,1,0.625,1,down,2,0
117,True,272.5155508999742,800.0,50.0,2,False,up,0.25,24,0.384,272.5155982000142,264.31643029999395,True,far_2,17,3,3,1.875,1,up,8,0
118,True,264.3164719000197,33.0,800.0,3,True,up,0.25,40,0.64,264.3164280999772,276.0973284000065,True,near_3,17,2,2,1.25,1,up,4,0
119,True,276.0972823999764,33.0,100.0,2,True,up,0.25,20,0.32,276.0973292000126,276.0973284000065,False,near_2,17,2,0,1.25,1,up,4,0
120,True,276.0972823999764,50.0,33.0,1,False,down,0.25,0,0.0,276.0973292000126,276.0973284000065,False,far_1,18,1,0,0.625,1,down,8,0
121,True,276.0972823999764,33.0,100.0,2,True,up,0.25,24,0.384,276.0973292000126,276.0973284000065,False,near_2,18,1,0,0.625,1,up,4,0
122,True,276.0972823999764,33.0,50.0,1,True,down,0.25,12,0.192,276.0973292000126,276.0973284000065,False,near_1,18,11,6,6.875,1,down,8,1
123,True,276.0972823999764,800.0,33.0,3,False,down,0.25,16,0.256,276.0973292000126,285.18454289998044,False,far_3,18,2,1,1.25,2,down,2,0
124,True,285.1845843000192,100.0,33.0,2,False,down,0.25,16,0.256,285.18454089997977,285.18454289998044,False,far_2,18,1,0,0.625,1,down,4,0
125,True,285.1845843000192,33.0,800.0,3,True,up,0.25,40,0.64,285.18454089997977,283.83019780000905,True,near_3,18,3,3,1.875,1,up,4,0
126,True,283.8301521999674,50.0,50.0,0,True,up,0.25,8,0.128,283.8301984000136,283.83019780000905,True,near_0,18,5,4,3.125,1,up,4,0
127,True,283.8301521999674,33.0,50.0,1,True,down,0.25,12,0.192,283.8301984000136,283.83019780000905,True,near_1,19,12,7,7.5,1,down,8,1
128,True,283.8301521999674,800.0,33.0,3,False,down,0.25,16,0.256,283.8301984000136,297.4724108999799,False,far_3,19,3,1,1.875,2,down,2,0
129,True,297.47245210003166,800.0,50.0,2,False,down,0.25,16,0.256,297.47240879997844,288.9556136000174,False,far_2,19,2,0,1.25,1,down,4,0
130,True,288.95556789996044,33.0,100.0,2,True,up,0.25,24,0.384,288.95561430000816,288.9556136000174,True,near_2,19,2,1,1.25,1,up,4,0
131,True,288.95556789996044,800.0,100.0,1,False,down,0.25,0,0.0,288.95561430000816,303.1122373999824,False,far_1,19,2,0,1.25,1,down,8,0
132,True,303.1122788000357,800.0,800.0,0,True,up,0.25,8,0.128,303.1122354999825,291.7576539000147,True,near_0,19,6,5,3.75,1,up,4,0
133,False,291.757608099957,33.0,800.0,3,True,down,0.25,36,0.5760000000000001,291.7576545000047,313.9492680999829,False,near_3,19,1,0,0.625,1,down,2,0
134,True,313.94930960003694,100.0,33.0,2,False,up,0.25,20,0.32,313.9492662999837,313.9492680999829,True,far_2,20,1,1,0.625,1,up,2,0
135,True,313.94930960003694,800.0,100.0,1,False,up,0.25,8,0.128,313.9492662999837,296.84875550001743,False,far_1,20,1,0,0.625,1,up,4,0
136,True,296.8487096999597,50.0,800.0,2,True,up,0.25,24,0.384,296.8487560000067,320.27176509996934,True,near_2,20,3,2,1.875,1,up,4,0
137,True,320.27180660003796,800.0,33.0,3,False,down,0.25,16,0.256,320.2717633999855,301.0581554000237,False,far_3,20,4,1,2.5,2,down,2,0
138,True,301.05810949995066,100.0,800.0,1,True,down,0.25,12,0.192,301.0581557000114,323.9499901999661,True,near_1,20,13,8,8.125,1,down,8,1
139,True,323.95003150004777,33.0,800.0,3,True,down,0.25,36,0.5760000000000001,323.9499884999823,308.28527300003043,True,near_3,19,1,1,0.625,1,down,2,0
140,True,308.2852271999436,33.0,33.0,0,True,down,0.25,4,0.064,308.28527340000437,308.28527300003043,False,near_0,20,1,0,0.625,1,down,2,0
141,True,308.2852271999436,800.0,33.0,3,False,down,0.25,16,0.256,308.28527340000437,333.9296411999676,True,far_3,21,5,2,3.125,2,down,2,0
142,True,333.92968270005076,100.0,100.0,0,True,down,0.25,4,0.064,333.929639399983,333.9296411999676,True,near_0,21,2,1,1.25,2,down,2,0
143,True,333.92968270005076,50.0,33.0,1,False,up,0.25,8,0.128,333.929639399983,333.9296411999676,True,far_1,21,2,1,1.25,1,up,4,0
144,True,333.92968270005076,100.0,800.0,1,True,down,0.25,12,0.192,333.929639399983,318.957819200019,False,near_1,21,14,8,8.75,1,down,8,1
145,True,318.957773299946,33.0,800.0,3,True,down,0.25,36,0.5760000000000001,318.95781970000826,340.08595559997775,True,near_3,20,2,2,1.25,2,down,2,0
146,True,340.0859970000456,800.0,50.0,2,False,up,0.25,20,0.32,340.08595369997784,321.9321553000191,False,far_2,21,2,1,1.25,2,up,2,0
147,True,321.9321095999476,33.0,100.0,2,True,up,0.25,24,0.384,321.9321559000091,321.9321553000191,False,near_2,21,4,2,2.5,1,up,4,0
148,True,321.9321095999476,100.0,100.0,0,True,down,0.25,4,0.064,321.9321559000091,321.9321553000191,True,near_0,22,3,2,1.875,2,down,2,0
149,True,321.9321095999476,33.0,100.0,2,True,up,0.25,24,0.384,321.9321559000091,321.9321553000191,True,near_2,22,5,3,3.125,1,up,4,0
150,True,321.9321095999476,100.0,800.0,1,True,down,0.25,12,0.192,321.9321559000091,363.2438880999689,True,near_1,22,15,9,9.375,1,down,8,1
151,True,363.2439295000513,33.0,800.0,3,True,down,0.25,36,0.5760000000000001,363.24388619998354,326.29790200002026,True,near_3,21,3,3,1.875,2,down,2,0
152,True,326.2978553999419,800.0,100.0,1,False,up,0.25,8,0.128,326.2979025000095,378.0721467999683,True,far_1,22,3,2,1.875,1,up,4,0
153,True,378.0721890000568,800.0,50.0,2,False,up,0.25,20,0.32,378.07214489998296,331.2060963000258,False,far_2,22,3,1,1.875,2,up,2,0
154,True,331.20605009993596,800.0,33.0,3,False,down,0.25,16,0.256,331.2060970000166,381.176986499966,False,far_3,22,6,2,3.75,2,down,2,0
155,True,381.17702830005146,800.0,33.0,3,False,down,0.25,16,0.256,381.17698429997836,334.35945070002344,False,far_3,23,7,2,4.375,2,down,2,0
156,True,334.35940449994814,800.0,50.0,2,False,up,0.25,20,0.32,334.35945160001575,388.97413989997585,True,far_2,23,4,2,2.5,2,up,2,0
157,True,388.974181600046,50.0,50.0,0,True,down,0.25,4,0.064,388.9741375999729,388.97413989997585,True,near_0,23,4,3,2.5,2,down,2,0
158,True,388.974181600046,33.0,800.0,3,True,down,0.25,36,0.5760000000000001,388.9741375999729,348.8021641000232,True,near_3,22,4,4,2.5,2,down,2,0
159,True,348.8021179999487,33.0,100.0,2,True,up,0.25,24,0.384,348.8021650000155,348.8021641000232,True,near_2,23,6,4,3.75,1,up,4,0
160,False,348.8021179999487,33.0,50.0,1,True,down,0.25,12,0.192,348.8021650000155,348.8021641000232,False,near_1,23,16,9,10.0,1,down,8,1
161,True,348.8021179999487,100.0,50.0,1,False,up,0.25,8,0.128,348.8021650000155,348.8021641000232,True,far_1,23,4,3,2.5,1,up,4,0
162,True,348.8021179999487,33.0,800.0,3,True,down,0.25,36,0.5760000000000001,348.8021650000155,406.102911999973,False,near_3,23,5,4,3.125,2,down,2,0
163,True,406.1029535000416,33.0,50.0,1,True,down,0.25,12,0.192,406.10290959998383,406.102911999973,False,near_1,23,16,9,10.0,1,down,8,1
164,True,406.1029535000416,800.0,33.0,3,False,up,0.25,18,0.28800000000000003,406.10290959998383,355.4576832000166,False,far_3,24,1,0,0.625,2,up,1,0
165,True,355.45763729995815,50.0,50.0,0,True,down,0.25,4,0.064,355.4576844000112,355.4576832000166,True,near_0,24,5,4,3.125,2,down,2,0
166,True,355.45763729995815,50.0,33.0,1,False,up,0.25,8,0.128,355.4576844000112,355.4576832000166,False,far_1,24,5,3,3.125,1,up,4,0
167,True,355.45763729995815,800.0,50.0,2,False,up,0.25,20,0.32,355.4576844000112,415.0638655999792,False,far_2,24,5,2,3.125,2,up,2,0
168,True,415.06390730003477,33.0,100.0,2,True,up,0.25,24,0.384,415.06386309998925,415.0638655999792,False,near_2,24,7,4,4.375,1,up,4,0
169,True,415.06390730003477,33.0,800.0,3,True,down,0.25,36,0.5760000000000001,415.06386309998925,360.3306771000207,True,near_3,24,6,5,3.75,2,down,2,0
170,True,360.33063059995766,800.0,50.0,2,False,up,0.25,20,0.32,360.3306778999977,417.87897269996756,False,far_2,25,6,2,3.75,2,up,2,0
171,True,417.8790150000423,33.0,33.0,0,True,down,0.25,4,0.064,417.8789705999952,417.87897269996756,True,near_0,25,6,5,3.75,2,down,2,0
172,True,417.8790150000423,800.0,33.0,3,False,up,0.25,18,0.28800000000000003,417.8789705999952,368.8881562000315,True,far_3,25,2,1,1.25,2,up,1,0
173,True,368.88810969995393,100.0,800.0,1,True,down,0.25,12,0.192,368.88815699999395,421.0435046999628,False,near_1,24,17,9,10.625,1,down,8,2
174,True,421.04354660003446,50.0,33.0,1,False,up,0.25,8,0.128,421.04350250000425,421.0435046999628,False,far_1,25,6,3,3.75,1,up,4,0
175,True,421.04354660003446,33.0,100.0,2,True,up,0.25,24,0.384,421.04350250000425,421.0435046999628,False,near_2,25,8,4,5.0,1,up,4,0
176,True,421.04354660003446,100.0,33.0,2,False,up,0.25,20,0.32,421.04350250000425,421.0435046999628,True,far_2,26,7,3,4.375,2,up,2,0
177,True,421.04354660003446,33.0,100.0,2,True,up,0.25,24,0.384,421.04350250000425,421.0435046999628,True,near_2,26,9,5,5.625,1,up,4,1
178,True,421.04354660003446,100.0,800.0,1,True,up,0.25,14,0.224,421.04350250000425,390.09693480003625,False,near_1,25,1,0,0.625,1,up,1,0
179,True,390.0968886999617,50.0,50.0,0,True,down,0.25,4,0.064,390.09693559998414,390.09693480003625,True,near_0,26,7,6,4.375,2,down,2,0
180,True,390.0968886999617,100.0,50.0,1,False,up,0.25,8,0.128,390.09693559998414,390.09693480003625,True,far_1,26,7,4,4.375,1,up,4,0
181,True,390.0968886999617,33.0,800.0,3,True,down,0.25,36,0.5760000000000001,390.09693559998414,432.32105809995846,True,near_3,25,7,6,4.375,2,down,2,0
182,False,432.3211000000301,800.0,33.0,3,False,up,0.25,18,0.28800000000000003,432.32105590001447,394.8653665000311,False,far_3,26,3,1,1.875,2,up,1,0
183,True,394.86532039995654,800.0,100.0,1,False,up,0.25,8,0.128,394.86536739997973,436.000800699956,True,far_1,27,8,5,5.0,1,up,4,0
184,True,436.0008421000384,33.0,800.0,3,True,down,0.25,36,0.5760000000000001,436.0007983000105,399.7667453000322,True,near_3,26,8,7,5.0,2,down,2,0
185,True,399.7666999999492,100.0,100.0,0,True,down,0.25,4,0.064,399.7667464999831,399.7667453000322,True,near_0,27,8,7,5.0,2,down,2,0
186,True,399.7666999999492,50.0,800.0,2,True,up,0.25,24,0.384,399.7667464999831,441.74884899996687,False,near_2,27,10,5,6.25,1,up,4,1
187,True,441.74888920004014,800.0,33.0,3,False,up,0.25,18,0.28800000000000003,441.74884650000604,404.2364081000269,False,far_3,26,3,1,1.875,2,up,1,0
188,True,404.23636369995074,50.0,100.0,1,True,up,0.25,14,0.224,404.2364091999916,404.2364081000269,True,near_1,26,2,1,1.25,2,up,1,0
189,True,404.23636369995074,100.0,33.0,2,False,up,0.25,20,0.32,404.2364091999916,404.2364081000269,True,far_2,27,8,4,5.0,2,up,2,0
190,True,404.23636369995074,33.0,800.0,3,True,down,0.25,36,0.5760000000000001,404.2364091999916,453.4759721999726,True,near_3,27,9,8,5.625,2,down,2,1
191,True,453.4760123000451,800.0,33.0,3,False,up,0.25,18,0.28800000000000003,453.475969799998,409.3601991000178,False,far_3,27,4,1,2.5,2,up,1,0
192,True,409.36015429995314,100.0,33.0,2,False,up,0.25,20,0.32,409.36019999999553,409.3601991000178,False,far_2,28,9,4,5.625,2,up,2,1
193,True,409.36015429995314,50.0,33.0,1,False,up,0.25,8,0.128,409.36019999999553,409.3601991000178,True,far_1,28,9,6,5.625,1,up,4,1
194,True,409.36015429995314,800.0,800.0,0,True,down,0.25,4,0.064,409.36019999999553,467.5911723999743,True,near_0,28,9,8,5.625,2,down,2,1
195,True,467.5912129000353,50.0,800.0,2,True,up,0.25,26,0.41600000000000004,467.5911702000012,412.8335830000142,False,near_2,28,1,0,0.625,1,up,2,0
196,True,412.83353809996333,100.0,800.0,1,True,up,0.25,14,0.224,412.83358389999194,471.2885742999788,True,near_1,27,3,2,1.875,2,up,1,0
197,True,471.2886146000237,100.0,100.0,0,True,down,0.25,3,0.048,471.2885721000057,471.2885742999788,True,near_0,29,1,1,0.625,2,down,1,0
198,True,471.2886146000237,800.0,50.0,2,False,up,0.25,20,0.32,471.2885721000057,419.0891787000146,True,far_2,29,10,5,6.25,2,up,2,1
199,True,419.0891332999745,33.0,800.0,3,True,down,0.25,35,0.56,419.08917959999235,476.7513058999757,False,near_3,28,1,0,0.625,2,down,1,0
200,True,476.7513470000122,800.0,33.0,3,False,up,0.25,18,0.28800000000000003,476.7513037000026,427.11649870002293,False,far_3,28,5,1,3.125,2,up,1,0
201,True,427.1164530999813,33.0,50.0,1,True,up,0.25,14,0.224,427.11649949998537,427.11649870002293,True,near_1,28,4,3,2.5,2,up,1,0
202,True,427.1164530999813,100.0,50.0,1,False,up,0.25,8,0.128,427.11649949998537,427.11649870002293,False,far_1,29,10,6,6.25,1,up,4,1
203,True,427.1164530999813,33.0,100.0,2,True,up,0.25,26,0.41600000000000004,427.11649949998537,427.11649870002293,False,near_2,29,2,0,1.25,2,up,2,0
204,True,427.1164530999813,50.0,50.0,0,True,down,0.25,3,0.048,427.11649949998537,427.11649870002293,True,near_0,30,2,2,1.25,2,down,1,0
205,True,427.1164530999813,100.0,33.0,2,False,up,0.25,20,0.32,427.11649949998537,427.11649870002293,False,far_2,30,11,5,6.875,2,up,2,1
206,True,427.1164530999813,100.0,50.0,1,False,up,0.25,8,0.128,427.11649949998537,427.11649870002293,False,far_1,30,11,6,6.875,1,up,4,1
207,True,427.1164530999813,50.0,800.0,2,True,up,0.25,26,0.41600000000000004,427.11649949998537,515.0295707999758,False,near_2,30,3,0,1.875,2,up,2,0
208,True,515.02961160001,800.0,33.0,3,False,up,0.25,19,0.304,515.0295685000019,430.13709270002437,False,far_3,29,1,0,0.625,2,up,1,0
209,True,430.1370476999873,33.0,800.0,3,True,down,0.25,35,0.56,430.1370936999883,517.4213037999725,True,near_3,29,2,1,1.25,2,down,1,0
210,True,517.4213441000029,100.0,800.0,1,True,up,0.25,14,0.224,517.4213013000117,434.5417334000231,True,near_1,29,5,4,3.125,2,up,1,0
211,True,434.541688399986,33.0,33.0,0,True,down,0.25,3,0.048,434.54173459998856,434.5417334000231,True,near_0,31,3,3,1.875,2,down,1,0
212,True,434.541688399986,50.0,33.0,1,False,up,0.25,8,0.128,434.54173459998856,434.5417334000231,False,far_1,31,12,6,7.5,1,up,4,1
213,True,434.541688399986,800.0,33.0,3,False,up,0.25,19,0.304,434.54173459998856,533.9083306999673,False,far_3,30,2,0,1.25,2,up,1,0
214,True,533.9083708000107,800.0,50.0,2,False,up,0.25,20,0.32,533.9083277000027,437.8475600000238,True,far_2,31,12,6,7.5,2,up,2,1
215,True,437.84751199997845,50.0,100.0,1,True,up,0.25,14,0.224,437.8475599999947,437.8475600000238,True,near_1,30,6,5,3.75,2,up,1,0
216,True,437.84751199997845,50.0,800.0,2,True,up,0.25,26,0.41600000000000004,437.8475599999947,539.532668699976,False,near_2,31,4,0,2.5,2,up,2,0
217,True,539.5327124000178,33.0,800.0,3,True,down,0.25,35,0.56,539.5326673999953,442.0544364000234,True,near_3,30,3,2,1.875,2,down,1,0
218,True,442.0543884999788,800.0,33.0,3,False,up,0.25,19,0.304,442.0544363999943,542.4769894999627,False,far_3,31,3,0,1.875,2,up,1,0
219,True,542.4770330000174,100.0,50.0,1,False,up,0.25,10,0.16,542.4769881999964,542.4769894999627,False,far_1,32,1,0,0.625,1,up,2,0
220,True,542.4770330000174,50.0,800.0,2,True,up,0.25,28,0.448,542.4769881999964,450.6270280000317,True,near_2,32,1,1,0.625,2,up,4,0
221,True,450.62698019997333,800.0,50.0,2,False,up,0.25,20,0.32,450.62702790000185,546.9744681999582,True,far_2,32,13,7,8.125,2,up,2,1
222,True,546.9745114000252,33.0,800.0,3,True,down,0.25,35,0.56,546.9744670999935,459.72688330004166,False,near_3,31,4,2,2.5,2,down,1,0
223,True,459.72683539996797,800.0,800.0,0,True,down,0.25,3,0.048,459.72688289999496,549.8273880999477,True,near_0,32,4,4,2.5,2,down,1,0
224,True,549.8274315000308,50.0,100.0,1,True,up,0.25,14,0.224,549.8273871999991,549.8273880999477,False,near_1,31,7,5,4.375,2,up,1,0
225,True,549.8274315000308,100.0,50.0,1,False,up,0.25,10,0.16,549.8273871999991,549.8273880999477,False,far_1,33,2,0,1.25,2,up,2,0
226,True,549.8274315000308,33.0,800.0,3,True,down,0.25,35,0.56,549.8273871999991,471.0299549000483,False,near_3,32,5,2,3.125,2,down,1,0
227,False,471.02990729996236,33.0,50.0,1,True,up,0.25,14,0.224,471.02995459998783,471.0299549000483,False,near_1,32,8,5,5.0,2,up,1,0
228,True,471.02990729996236,100.0,100.0,0,True,down,0.25,3,0.048,471.02995459998783,471.0299549000483,False,near_0,33,5,4,3.125,2,down,1,0
229,True,471.02990729996236,800.0,33.0,3,False,up,0.25,19,0.304,471.02995459998783,560.9943093999464,False,far_3,32,4,0,2.5,2,up,1,0
230,True,560.9943525000272,800.0,50.0,2,False,up,0.25,20,0.32,560.9943085000123,474.5514635000436,True,far_2,33,14,8,8.75,2,up,2,1
231,True,474.5514156999707,33.0,100.0,2,True,up,0.25,28,0.448,474.55146309998236,474.5514635000436,True,near_2,33,2,2,1.25,1,up,4,0
232,True,474.5514156999707,33.0,800.0,3,True,down,0.25,35,0.56,474.55146309998236,569.5918114999513,True,near_3,33,6,3,3.75,2,down,1,0
233,True,569.5918484000285,800.0,100.0,1,False,up,0.25,10,0.16,569.591808400015,479.9657209000434,False,far_1,34,3,0,1.875,2,up,2,0
234,True,479.96567959996173,50.0,100.0,1,True,up,0.25,14,0.224,479.96572239998204,479.9657209000434,False,near_1,32,8,5,5.0,2,up,1,0
235,True,479.96567959996173,800.0,50.0,2,False,up,0.25,20,0.32,479.96572239998204,576.7697241999558,True,far_2,34,15,9,9.375,2,up,2,1
236,True,576.7697604000277,800.0,33.0,3,False,up,0.25,20,0.32,576.7697214000073,485.1999496000353,False,far_3,33,1,0,0.625,2,up,1,0
237,True,485.19990939996205,100.0,100.0,0,True,down,0.25,3,0.048,485.1999511999893,485.1999496000353,True,near_0,34,6,5,3.75,2,down,1,0
238,True,485.19990939996205,33.0,100.0,2,True,up,0.25,28,0.448,485.1999511999893,485.1999496000353,True,near_2,34,3,3,1.875,1,up,4,0
239,True,485.19990939996205,100.0,100.0,0,True,down,0.25,3,0.048,485.1999511999893,485.1999496000353,True,near_0,35,7,6,4.375,2,down,1,0
240,True,485.19990939996205,800.0,100.0,1,False,up,0.25,10,0.16,485.1999511999893,602.579457899963,True,far_1,35,4,1,2.5,2,up,2,0
241,True,602.5794937000319,33.0,800.0,3,True,down,0.25,35,0.56,602.5794549999991,489.94060050003463,False,near_3,34,7,3,4.375,2,down,1,0
242,True,489.9405604999629,800.0,33.0,3,False,up,0.25,20,0.32,489.9406020999886,622.7398830999591,False,far_3,34,2,0,1.25,2,up,1,0
243,True,622.7399183000234,50.0,100.0,1,True,up,0.25,14,0.224,622.739880100009,622.7398830999591,True,near_1,33,9,6,5.625,2,up,1,1
244,True,622.7399183000234,33.0,100.0,2,True,down,0.25,24,0.384,622.739880100009,622.7398830999591,True,near_2,35,1,1,0.625,1,down,2,0
245,True,622.7399183000234,100.0,33.0,2,False,up,0.25,20,0.32,622.739880100009,622.7398830999591,False,far_2,35,16,9,10.0,2,up,2,1
246,True,622.7399183000234,50.0,33.0,1,False,up,0.25,10,0.16,622.739880100009,622.7398830999591,False,far_1,36,5,1,3.125,2,up,2,0
247,True,622.7399183000234,800.0,33.0,3,False,up,0.25,20,0.32,622.739880100009,509.1171320000285,True,far_3,35,3,1,1.875,2,up,1,0
248,True,509.1170788999734,50.0,800.0,2,True,down,0.25,24,0.384,509.1171204999846,625.5774305999657,True,near_2,36,2,2,1.25,2,down,2,0
249,True,625.5774788000126,100.0,800.0,1,True,up,0.25,14,0.224,625.5774409000151,511.64699050002673,True,near_1,34,10,7,6.25,2,up,1,1
250,True,511.64693789997546,800.0,50.0,2,False,up,0.25,20,0.32,511.64697889998206,631.2326207999722,False,far_2,36,17,9,10.625,2,up,2,2
251,True,631.2326693000214,50.0,50.0,0,True,down,0.25,3,0.048,631.232631100007,631.2326207999722,False,near_0,36,8,6,5.0,2,down,1,0
252,True,631.2326693000214,33.0,800.0,3,True,down,0.25,35,0.56,631.232631100007,564.3429073000152,True,near_3,35,8,4,5.0,2,down,1,0
253,True,564.3428543999762,50.0,100.0,1,True,up,0.25,14,0.224,564.3428956999851,564.3429073000152,True,near_1,35,11,8,6.875,2,up,1,1
254,True,564.3428543999762,100.0,50.0,1,False,up,0.25,12,0.192,564.3428956999851,564.3429073000152,True,far_1,37,1,1,0.625,2,up,2,0
255,True,564.3428543999762,800.0,800.0,0,True,down,0.25,3,0.048,564.3428956999851,638.34376839998,True,near_0,37,9,7,5.625,2,down,1,1
256,True,638.3438166000124,50.0,800.0,2,True,down,0.25,24,0.384,638.343778800001,566.9045954000176,False,near_2,37,3,2,1.875,2,down,2,0
257,True,566.9045427999808,800.0,33.0,3,False,up,0.25,20,0.32,566.9045836999867,640.7405927999789,True,far_3,36,4,2,2.5,2,up,1,0
258,True,640.740641100012,800.0,50.0,2,False,up,0.25,20,0.32,640.7406031999999,569.5456826000154,False,far_2,37,18,9,11.25,2,up,2,2
259,True,569.5456295999757,33.0,800.0,3,True,down,0.25,35,0.56,569.5456708999991,644.2775074999809,True,near_3,36,9,5,5.625,2,down,1,1
260,True,644.2775564000185,800.0,50.0,2,False,up,0.25,21,0.336,644.2775178999873,572.209341800015,True,far_2,38,1,1,0.625,2,up,1,0
261,True,572.2092875999806,800.0,33.0,3,False,up,0.25,20,0.32,572.2093299000117,647.4663853999809,False,far_3,37,5,2,3.125,2,up,1,0
262,True,647.4664352000109,50.0,800.0,2,True,down,0.25,24,0.384,647.4663960999751,579.6377816000168,True,near_2,38,4,3,2.5,2,down,2,0
263,True,579.6377274999832,100.0,800.0,1,True,up,0.25,14,0.224,579.6377696000127,649.5428620999737,True,near_1,36,12,9,7.5,2,up,1,1
264,True,649.5429117000167,33.0,33.0,0,True,down,0.25,3,0.048,649.5428725999809,649.5428620999737,False,near_0,38,10,7,6.25,2,down,1,1
265,True,649.5429117000167,800.0,100.0,1,False,up,0.25,12,0.192,649.5428725999809,586.9074785000266,False,far_1,38,2,1,1.25,2,up,2,0
266,True,586.90742459998,33.0,800.0,3,True,down,0.25,35,0.56,586.9074667000095,652.8083756999695,True,near_3,37,10,6,6.25,2,down,1,1
267,True,652.808425500014,800.0,50.0,2,False,up,0.25,21,0.336,652.8083861999767,596.1251340000308,False,far_2,39,2,1,1.25,3,up,1,0
268,True,596.1250797999819,100.0,800.0,1,True,up,0.25,14,0.224,596.1251222000137,656.7012478999677,True,near_1,37,13,10,8.125,2,up,1,1
269,True,656.7012975000107,33.0,800.0,3,True,down,0.25,35,0.56,656.7012582999741,599.43303010003,True,near_3,38,11,7,6.875,2,down,1,1
270,True,599.4329759999819,33.0,100.0,2,True,down,0.25,24,0.384,599.4330184000137,599.43303010003,False,near_2,39,5,3,3.125,2,down,2,0
271,True,599.4329759999819,50.0,50.0,0,True,down,0.25,3,0.048,599.4330184000137,599.43303010003,True,near_0,39,11,8,6.875,2,down,1,1
272,True,599.4329759999819,800.0,33.0,3,False,up,0.25,20,0.32,599.4330184000137,668.4758070999669,True,far_3,38,6,3,3.75,2,up,1,0
273,True,668.4758568000107,800.0,100.0,1,False,up,0.25,12,0.192,668.4758174999733,604.0274830000271,True,far_1,39,3,2,1.875,2,up,2,0
274,True,604.0274284999759,100.0,800.0,1,True,up,0.25,14,0.224,604.0274711000238,670.5730900999624,True,near_1,38,14,11,8.75,2,up,1,1
275,True,670.5731403000245,800.0,50.0,2,False,up,0.25,21,0.336,670.5731007999711,611.1095096000354,False,far_2,40,3,1,1.875,3,up,1,0
276,True,611.1094551999704,100.0,100.0,0,True,down,0.25,3,0.048,611.1094977000175,611.1095096000354,True,near_0,40,12,9,7.5,2,down,1,1
277,True,611.1094551999704,50.0,800.0,2,True,down,0.25,24,0.384,611.1094977000175,676.5311725999636,True,near_2,40,6,4,3.75,2,down,2,0
278,True,676.5312228000257,800.0,33.0,3,False,up,0.25,20,0.32,676.5311830999708,615.1301077000244,True,far_3,39,7,4,4.375,2,up,1,0
279,True,615.1300529999717,100.0,50.0,1,False,up,0.25,12,0.192,615.1300957000203,615.1301077000244,True,far_1,40,4,3,2.5,2,up,2,0
280,True,615.1300529999717,33.0,800.0,3,True,down,0.25,35,0.56,615.1300957000203,682.3859599999705,True,near_3,39,12,8,7.5,2,down,1,1
281,True,682.3860103000188,800.0,800.0,0,True,down,0.25,3,0.048,682.3859705999785,618.4329421000293,True,near_0,41,13,10,8.125,2,down,1,1
282,True,618.4328872999758,33.0,800.0,3,True,down,0.25,35,0.56,618.4329302000115,688.8656578999653,True,near_3,40,13,9,8.125,2,down,1,1
283,True,688.8657083000144,100.0,33.0,2,False,up,0.25,21,0.336,688.865668399987,688.8656578999653,False,far_2,41,4,1,2.5,3,up,1,0
284,True,688.8657083000144,800.0,100.0,1,False,up,0.25,12,0.192,688.865668399987,626.1796870000253,True,far_1,41,5,4,3.125,2,up,2,0
285,True,626.1796319999848,800.0,33.0,3,False,up,0.25,20,0.32,626.1796752000082,693.3424696999718,True,far_3,40,8,5,5.0,2,up,1,0
286,True,693.3425202000071,33.0,100.0,2,True,down,0.25,24,0.384,693.3424799999921,693.3424696999718,True,near_2,41,7,5,4.375,2,down,2,0
287,True,693.3425202000071,33.0,100.0,2,True,down,0.25,24,0.384,693.3424799999921,693.3424696999718,False,near_2,42,8,5,5.0,2,down,2,0
288,True,693.3425202000071,33.0,800.0,3,True,down,0.25,35,0.56,693.3424799999921,637.0670663000201,True,near_3,41,14,10,8.75,2,down,1,1
289,True,637.0670107999904,800.0,50.0,2,False,up,0.25,21,0.336,637.0670546000038,700.9577669999708,False,far_2,42,5,1,3.125,3,up,1,0
290,True,700.9578183999984,100.0,100.0,0,True,down,0.25,3,0.048,700.957777299991,700.9577669999708,False,near_0,42,14,10,8.75,2,down,1,1
291,True,700.9578183999984,800.0,33.0,3,False,up,0.25,20,0.32,700.957777299991,645.6273150000197,False,far_3,41,9,5,5.625,2,up,1,1
292,True,645.6272591000015,50.0,33.0,1,False,up,0.25,12,0.192,645.6273033000034,645.6273150000197,False,far_1,42,6,4,3.75,2,up,2,0
293,True,645.6272591000015,100.0,100.0,0,True,down,0.25,3,0.048,645.6273033000034,645.6273150000197,True,near_0,43,15,11,9.375,2,down,1,1
294,True,645.6272591000015,50.0,800.0,2,True,down,0.25,24,0.384,645.6273033000034,715.6348227999697,False,near_2,43,9,5,5.625,2,down,2,1
295,True,715.6348741999973,33.0,800.0,3,True,down,0.25,35,0.56,715.6348331999907,656.7198891000298,True,near_3,42,15,11,9.375,2,down,1,1
296,True,656.7198336000001,800.0,33.0,3,False,up,0.25,20,0.32,656.719877399999,719.3155310999573,False,far_3,42,10,5,6.25,2,up,1,1
297,True,719.3155822999979,50.0,33.0,1,False,up,0.25,12,0.192,719.3155414999928,719.3155310999573,False,far_1,43,7,4,4.375,2,up,2,0
298,False,719.3155822999979,800.0,50.0,2,False,up,0.25,21,0.336,719.3155414999928,663.9714094000374,True,far_2,43,6,2,3.75,3,up,1,0
299,True,663.9713537999924,100.0,33.0,2,False,up,0.25,21,0.336,663.9713977000065,663.9714094000374,False,far_2,43,6,1,3.75,3,up,1,0
300,True,663.9713537999924,33.0,800.0,3,True,down,0.25,35,0.56,663.9713977000065,729.9139658999629,True,near_3,43,16,12,10.0,2,down,1,1
301,True,729.9140170000028,50.0,33.0,1,False,up,0.25,12,0.192,729.9139762999839,729.9139658999629,True,far_1,44,8,5,5.0,2,up,2,0
302,True,729.9140170000028,50.0,800.0,2,True,down,0.25,24,0.384,729.9139762999839,669.2070322000363,True,near_2,44,10,6,6.25,2,down,2,1
303,True,669.2069760999875,33.0,33.0,0,True,down,0.25,3,0.048,669.2070204000047,669.2070322000363,False,near_0,44,16,11,10.0,2,down,1,1
304,True,669.2069760999875,800.0,33.0,3,False,up,0.25,20,0.32,669.2070204000047,741.9514167999587,False,far_3,43,11,5,6.875,2,up,1,1
305,True,741.9514686000039,800.0,33.0,3,False,up,0.25,20,0.32,741.9514271999942,672.30720200004,False,far_3,44,12,5,7.5,2,up,1,1
306,True,672.3071454999881,50.0,800.0,2,True,down,0.25,24,0.384,672.3071902999945,745.422540399959,True,near_2,45,11,7,6.875,2,down,2,1
307,True,745.4225925000064,50.0,33.0,1,False,up,0.25,12,0.192,745.4225508999953,745.422540399959,True,far_1,45,9,6,5.625,2,up,2,1
308,True,745.4225925000064,800.0,50.0,2,False,up,0.25,21,0.336,745.4225508999953,678.0739193000336,True,far_2,44,7,2,4.375,3,up,1,0
309,True,678.073862699981,50.0,800.0,2,True,down,0.25,24,0.384,678.0739076000027,748.9472118999547,False,near_2,46,12,7,7.5,2,down,2,1
310,True,748.9472637000144,100.0,33.0,2,False,up,0.25,21,0.336,748.9472221999895,748.9472118999547,False,far_2,45,8,2,5.0,3,up,1,0
311,True,748.9472637000144,50.0,33.0,1,False,up,0.25,12,0.192,748.9472221999895,748.9472118999547,True,far_1,46,10,7,6.25,2,up,2,1
312,True,748.9472637000144,800.0,33.0,3,False,up,0.25,21,0.336,748.9472221999895,689.6824295000406,False,far_3,45,1,0,0.625,2,up,1,0
313,True,689.6823730999749,50.0,33.0,1,False,up,0.25,12,0.192,689.6824178000097,689.6824295000406,False,far_1,47,11,7,6.875,2,up,2,1
314,True,689.6823730999749,800.0,33.0,3,False,up,0.25,21,0.336,689.6824178000097,758.1979557999584,False,far_3,46,2,0,1.25,2,up,1,0
315,True,758.1980080000212,50.0,800.0,2,True,down,0.25,24,0.384,758.1979661999794,692.3901549000293,False,near_2,47,13,7,8.125,2,down,2,1
316,True,692.3900979999744,800.0,33.0,3,False,up,0.25,21,0.336,692.390143200013,761.018723599962,False,far_3,47,3,0,1.875,2,up,1,0
317,True,761.0187761000125,100.0,50.0,1,False,up,0.25,12,0.192,761.0187340999837,761.018723599962,True,far_1,48,12,8,7.5,2,up,2,1
318,True,761.0187761000125,33.0,100.0,2,True,down,0.25,24,0.384,761.0187340999837,761.018723599962,True,near_2,48,14,8,8.75,2,down,2,1
319,False,761.0187761000125,50.0,33.0,1,False,up,0.25,12,0.192,761.0187340999837,761.018723599962,True,far_1,49,13,9,8.125,2,up,2,1
320,True,761.0187761000125,800.0,33.0,3,False,up,0.25,21,0.336,761.0187340999837,706.2198006000253,False,far_3,48,4,0,2.5,2,up,1,0
321,True,706.2197437999857,50.0,800.0,2,True,down,0.25,24,0.384,706.219788900009,764.1479664999642,True,near_2,49,15,9,9.375,2,down,2,1
322,True,764.1480190000148,800.0,33.0,3,False,up,0.25,22,0.352,764.1479768999852,708.527031700025,False,far_3,49,1,0,0.625,2,up,2,0
323,True,708.5269747999846,100.0,50.0,1,False,up,0.25,12,0.192,708.5270199000079,708.527031700025,True,far_1,49,13,9,8.125,2,up,2,1
324,True,708.5269747999846,33.0,100.0,2,True,down,0.25,24,0.384,708.5270199000079,708.527031700025,False,near_2,50,16,9,10.0,2,down,2,1
325,True,708.5269747999846,50.0,800.0,2,True,down,0.25,24,0.384,708.5270199000079,775.526327199972,False,near_2,51,17,9,10.625,2,down,2,2
326,True,775.5263798000087,800.0,100.0,1,False,up,0.25,12,0.192,775.5263375999784,711.6565949000214,True,far_1,50,14,10,8.75,2,up,2,1
327,True,711.6565381999826,800.0,33.0,3,False,up,0.25,22,0.352,711.6565833000204,779.2265408999665,True,far_3,50,2,1,1.25,2,up,2,0
328,True,779.226593000014,50.0,800.0,2,True,down,0.25,24,0.384,779.2265509999706,714.0294703000254,True,near_2,52,18,10,11.25,2,down,2,2
329,True,714.0294132999843,800.0,33.0,3,False,up,0.25,22,0.352,714.0294588000252,782.497459799968,False,far_3,51,3,1,1.875,2,up,2,0
330,True,782.4975121000025,800.0,100.0,1,False,up,0.25,12,0.192,782.4974697999714,716.3603352000209,True,far_1,51,15,11,9.375,2,up,2,1
331,True,716.3602783999959,800.0,33.0,3,False,up,0.25,22,0.352,716.3603239000222,787.0801203999727,True,far_3,52,4,2,2.5,2,up,2,0
332,True,787.0801727999933,50.0,800.0,2,True,down,0.25,24,0.384,787.0801302999753,721.8214367000182,False,near_2,53,19,10,11.875,2,down,2,2
333,True,721.821379800007,800.0,100.0,1,False,up,0.25,12,0.192,721.8214254000195,790.252725999977,True,far_1,52,16,12,10.0,2,up,2,1
334,True,790.2527782999823,33.0,100.0,2,True,down,0.25,24,0.384,790.2527359999804,790.252725999977,True,near_2,54,20,11,12.5,2,down,2,2
335,True,790.2527782999823,800.0,100.0,1,False,up,0.25,12,0.192,790.2527359999804,732.3315384000161,False,far_1,53,17,12,10.625,2,up,2,2
336,True,732.3314817000064,800.0,33.0,3,False,up,0.25,22,0.352,732.3315271000174,794.6250116999727,False,far_3,53,5,2,3.125,2,up,2,0
337,True,794.6250639999926,50.0,800.0,2,True,down,0.25,24,0.384,794.6250215999753,737.3816019000224,False,near_2,55,21,11,13.125,2,down,2,2
338,True,737.3815451999981,800.0,100.0,1,False,up,0.25,12,0.192,737.3815908000252,801.4464162999648,True,far_1,54,18,13,11.25,2,up,2,2
339,True,801.4464682999969,800.0,33.0,3,False,up,0.25,22,0.352,801.4464260999666,745.3422811000346,True,far_3,54,6,3,3.75,2,up,2,0
340,True,745.3422248999996,800.0,33.0,3,False,up,0.25,22,0.352,745.3422700000228,804.3312931999535,False,far_3,55,7,3,4.375,2,up,2,0
341,True,804.3313380999898,50.0,33.0,1,False,up,0.25,12,0.192,804.3312963999633,804.3312931999535,True,far_1,55,19,14,11.875,2,up,2,2
342,True,804.3313380999898,800.0,33.0,3,False,up,0.25,22,0.352,804.3312963999633,751.8725686000398,True,far_3,56,8,4,5.0,2,up,2,0
343,True,751.8725191999984,800.0,33.0,3,False,up,0.25,22,0.352,751.8725641000347,809.8639872999483,False,far_3,57,9,4,5.625,2,up,2,1
344,True,809.8640324000007,800.0,33.0,3,False,up,0.25,22,0.352,809.8639905999589,758.85871460005,False,far_3,58,10,4,6.25,2,up,2,1
345,True,758.8586652999948,800.0,33.0,3,False,up,0.25,23,0.368,758.8587100000295,813.5258951999422,False,far_3,59,1,0,0.625,2,up,2,0
346,True,813.5259404999961,800.0,33.0,3,False,up,0.25,23,0.368,813.5258985999681,762.6764318000496,True,far_3,60,2,1,1.25,2,up,2,0
347,False,762.6763822999928,800.0,33.0,3,False,up,0.25,23,0.368,762.6764271000284,819.0003161999484,False,far_3,61,3,1,1.875,2,up,2,0
348,True,819.0003616000031,800.0,33.0,3,False,up,0.25,23,0.368,819.0003195999598,766.2254867000447,True,far_3,61,3,2,1.875,2,up,2,0
349,True,766.2254370999872,800.0,33.0,3,False,up,0.25,23,0.368,766.2254821000388,822.3778031999536,False,far_3,62,4,2,2.5,2,up,2,0
350,True,822.377848300006,800.0,33.0,3,False,up,0.25,23,0.368,822.3778063999489,769.1610018000356,True,far_3,63,5,3,3.125,2,up,2,0
351,True,769.1609524999803,800.0,33.0,3,False,up,0.25,23,0.368,769.160997300045,838.7365858999547,False,far_3,64,6,3,3.75,2,up,2,0
352,True,838.7366308000201,800.0,33.0,3,False,up,0.25,23,0.368,838.7365890999499,772.7361846000422,True,far_3,65,7,4,4.375,2,up,2,0
353,True,772.7361350999709,800.0,33.0,3,False,up,0.25,23,0.368,772.73617990005,846.0718001999485,False,far_3,66,8,4,5.0,2,up,2,0
354,True,846.0718451000284,800.0,33.0,3,False,up,0.25,23,0.368,846.0718035999453,776.7060748000513,False,far_3,67,9,4,5.625,2,up,2,1
355,True,776.7060238999693,800.0,33.0,3,False,up,0.25,23,0.368,776.7060702000454,850.159950799949,True,far_3,68,10,5,6.25,2,up,2,1
356,True,850.1599975000281,800.0,33.0,3,False,up,0.25,23,0.368,850.159954099945,779.5757719000394,False,far_3,69,11,5,6.875,2,up,2,1
357,True,779.5757205999689,800.0,33.0,3,False,up,0.25,23,0.368,779.5757671000465,855.977867199952,False,far_3,70,12,5,7.5,2,up,2,1
358,True,855.9779139000311,800.0,33.0,3,False,up,0.25,24,0.384,855.9778707999503,782.5012628000404,True,far_3,71,1,1,0.625,2,up,2,0
359,True,782.5012114999554,800.0,33.0,3,False,up,0.25,24,0.384,782.5012579000468,859.0487018999556,False,far_3,72,2,1,1.25,2,up,2,0
360,True,859.0487488000363,800.0,33.0,3,False,up,0.25,24,0.384,859.0487053999532,785.3808631000429,True,far_3,73,3,2,1.875,2,up,2,0
361,True,785.3808117999579,800.0,33.0,3,False,up,0.25,24,0.384,785.3808583000355,862.3363426999567,False,far_3,74,4,2,2.5,2,up,2,0
362,True,862.3363896000374,800.0,33.0,3,False,up,0.25,24,0.384,862.3363461999543,790.2465926000295,False,far_3,75,5,2,3.125,2,up,2,0
363,True,790.2465412999591,800.0,33.0,3,False,up,0.25,24,0.384,790.2465877000359,864.8066049999616,True,far_3,76,6,3,3.75,2,up,2,0
364,True,864.8066519000276,800.0,33.0,3,False,up,0.25,24,0.384,864.8066083999583,794.5535619000293,False,far_3,77,7,3,4.375,2,up,2,0
365,True,794.5535102999711,800.0,33.0,3,False,up,0.25,24,0.384,794.5535570000357,868.4346467999712,False,far_3,78,8,3,5.0,2,up,2,0
366,True,868.4346941000258,800.0,33.0,3,False,up,0.25,24,0.384,868.4346502999542,802.6470190000255,True,far_3,79,9,4,5.625,2,up,2,1
367,True,802.6469673999673,800.0,33.0,3,False,up,0.25,24,0.384,802.6470142000326,875.3858670999616,False,far_3,80,10,4,6.25,2,up,2,1
368,True,875.3859144000307,800.0,33.0,3,False,up,0.25,25,0.4,875.3858705999592,806.4748730000283,True,far_3,81,1,1,0.625,2,up,2,0
369,True,806.4748215999571,800.0,33.0,3,False,up,0.25,25,0.4,806.4748683000362,881.4145880999713,True,far_3,82,2,2,1.25,2,up,2,0
370,True,881.4146351000381,800.0,33.0,3,False,up,0.25,25,0.4,881.4145913999528,810.2736921000178,True,far_3,83,3,3,1.875,2,up,2,0
371,True,810.2736405999603,800.0,33.0,3,False,up,0.25,25,0.4,810.273687500041,884.8721935999783,False,far_3,84,4,3,2.5,2,up,2,0
372,True,884.8722408000322,800.0,33.0,3,False,up,0.25,25,0.4,884.8721968999453,814.536271000019,True,far_3,85,5,4,3.125,2,up,2,0
373,True,814.536218899957,800.0,33.0,3,False,up,0.25,25,0.4,814.5362662000553,888.1341654999705,False,far_3,86,6,4,3.75,2,up,2,0
374,True,888.1342132000427,800.0,33.0,3,False,up,0.25,25,0.4,888.134168999939,818.610653700016,False,far_3,87,7,4,4.375,2,up,2,0
375,True,818.6106016999547,800.0,33.0,3,False,up,0.25,25,0.4,818.6106489000522,892.7188070999837,False,far_3,88,8,4,5.0,2,up,2,0
376,True,892.718854500039,800.0,33.0,3,False,up,0.25,25,0.4,892.7188104999368,822.8659590000025,False,far_3,89,9,4,5.625,2,up,2,1
377,True,822.865906899955,800.0,33.0,3,False,up,0.25,25,0.4,822.865953900051,895.1045814999961,True,far_3,90,10,5,6.25,2,up,2,1
378,True,895.10462930004,800.0,33.0,3,False,up,0.25,25,0.4,895.104585199937,829.0179247999913,False,far_3,91,11,5,6.875,2,up,2,1
379,True,829.0178726999584,800.0,33.0,3,False,up,0.25,25,0.4,829.0179196000536,899.5518018000002,False,far_3,92,12,5,7.5,2,up,2,1
380,True,899.5518388000346,800.0,33.0,3,False,up,0.25,26,0.41600000000000004,899.5518055999419,831.6637816000002,True,far_3,93,1,1,0.625,2,up,2,0
381,True,831.6637401999615,800.0,33.0,3,False,up,0.25,26,0.41600000000000004,831.6637765000487,902.352674099995,True,far_3,94,2,2,1.25,2,up,2,0
382,True,902.3527112000302,800.0,33.0,3,False,up,0.25,26,0.41600000000000004,902.3526778999512,836.9895995999977,True,far_3,95,3,3,1.875,2,up,2,0
383,True,836.989557799956,800.0,33.0,3,False,up,0.25,26,0.41600000000000004,836.9895945000462,907.1488420999958,False,far_3,96,4,3,2.5,2,up,2,0
384,True,907.1488797000347,800.0,33.0,3,False,up,0.25,26,0.41600000000000004,907.148845899952,865.1382975000015,False,far_3,97,5,3,3.125,2,up,2,0
385,False,865.1382552999567,800.0,33.0,3,False,up,0.25,26,0.41600000000000004,865.1382924000354,915.3292811999854,True,far_3,98,6,4,3.75,2,up,2,0
386,True,915.3293189000397,800.0,33.0,3,False,up,0.25,26,0.41600000000000004,915.3292848999554,872.0918785000104,True,far_3,98,6,4,3.75,2,up,2,0
387,True,872.0918358999479,800.0,33.0,3,False,up,0.25,26,0.41600000000000004,872.091873500045,918.1157350999856,False,far_3,99,7,4,4.375,2,up,2,0
388,True,918.1157728000398,800.0,33.0,3,False,up,0.25,26,0.41600000000000004,918.115738599954,876.7074120000034,True,far_3,100,8,5,5.0,2,up,2,0
