trial,primeCorrect,primeTime,primeDepth,stimDepth,diopters,nearToFar,orientation,contrast,frequency,intensity,requestedLatency,actualLatency,responseTime,correct,caseLabel,caseTrial,trialsAtStep,stepCorrect,expected,w,direction,stepsize,stepChange
1,True,1.6579827000387013,800.0,33.0,50.0,0,15.291251299902797,False,3,90,1.0,[21. 21.],60,0.96,0.9624529001303017,0.09824700001627207,True,near-rndm,1,1,1,0.75,0.5,start,8,0
2,True,2.023879300104454,800.0,50.0,33.0,10,0.1630826999899,False,2,90,1.0,[21. 21.],60,0.96,0.9649324000347406,0.11216040002182126,False,near-160,1,1,0,0.75,0.5,start,8,0
3,True,1.7694431999698281,800.0,100.0,50.0,0,0.1630826999899,False,1,90,1.0,[21. 21.],60,0.96,0.968079499900341,3.2334970999509096,True,near-rnd2,1,1,1,0.75,0.5,start,8,0
4,True,1.9208789998665452,800.0,50.0,33.0,5,0.08293009991757572,False,2,0,1.0,[21. 21.],60,0.96,0.9673496000468731,0.0658528998028487,True,near-080,1,1,1,0.75,0.5,start,8,0
5,True,2.117243400076404,800.0,50.0,33.0,0,0.08293009991757572,False,2,0,1.0,[21. 21.],60,0.96,0.9683052999898791,0.17428839998319745,False,near-000,1,1,0,0.75,0.5,start,8,0
6,False,1.5182141000404954,800.0,50.0,33.0,10,0.16203140001744032,False,2,0,1.0,[21. 21.],68,1.088,1.0936837999615818,0.07370730000548065,False,near-160,2,1,0,0.75,0.5,up,4,0
7,True,1.6358615001663566,800.0,33.0,50.0,0,0.16203140001744032,False,3,0,1.0,[21. 21.],52,0.8320000000000001,0.835630499990657,0.30846759979613125,True,near-rnd2,2,1,1,0.75,0.5,start,8,0
8,True,1.576658699894324,800.0,33.0,50.0,0,0.16203140001744032,False,3,0,1.0,[21. 21.],52,0.8320000000000001,0.83572500012815,0.1198817000258714,True,near-rndm,2,1,1,0.75,0.5,start,8,0
9,True,2.484494299860671,800.0,50.0,33.0,0,0.16203140001744032,False,2,0,1.0,[21. 21.],68,1.088,1.097344399895519,0.9560355001594871,True,near-000,2,1,1,0.75,0.5,up,4,0
10,True,2.8600696998182684,800.0,50.0,33.0,5,0.08268059999682009,False,2,90,1.0,[21. 21.],52,0.8320000000000001,0.8380452999845147,0.19050589995458722,True,near-080,2,1,1,0.75,0.5,start,8,0
11,True,2.426308099878952,800.0,50.0,33.0,0,0.08268059999682009,False,2,90,1.0,[21. 21.],68,1.088,1.0941474998835474,0.2964655999094248,True,near-000,3,2,2,1.5,1,up,4,0
12,True,2.3856840000953525,800.0,100.0,50.0,0,0.08268059999682009,False,1,90,1.0,[21. 21.],44,0.704,0.7115093998145312,0.4299172998871654,True,near-rndm,3,1,1,0.75,0.5,start,8,0
13,True,1.6606878999155015,800.0,50.0,33.0,10,0.16315280017443,False,2,0,1.0,[21. 21.],68,1.088,1.091909599956125,0.21804470010101795,True,near-160,2,1,1,0.75,0.5,up,4,0
14,True,2.5524726998992264,800.0,33.0,50.0,0,0.16315280017443,False,3,0,1.0,[21. 21.],44,0.704,0.7080109000671655,1.8371971000451595,True,near-rnd2,3,1,1,0.75,0.5,start,8,0
15,True,2.038015100173652,800.0,50.0,33.0,5,0.08304220018908381,False,2,0,1.0,[21. 21.],44,0.704,0.7080628999974579,0.37317320005968213,True,near-080,3,1,1,0.75,0.5,start,8,0
16,True,2.6475873000454158,800.0,100.0,50.0,0,0.08304220018908381,False,1,90,1.0,[21. 21.],36,0.5760000000000001,0.580365400062874,0.42466360004618764,True,near-rndm,4,1,1,0.75,0.5,start,8,0
17,True,2.630265399813652,800.0,50.0,33.0,0,0.08304220018908381,False,2,0,1.0,[21. 21.],68,1.088,1.094461499946192,0.3339317999780178,True,near-000,4,3,3,2.25,1,up,4,0
18,True,2.167161700082943,800.0,50.0,33.0,5,0.08133330009877682,False,2,0,1.0,[21. 21.],36,0.5760000000000001,0.5823511998169124,0.5344891999848187,True,near-080,4,1,1,0.75,0.5,start,8,0
19,True,2.8335149998310953,800.0,100.0,50.0,0,0.08133330009877682,False,1,90,1.0,[21. 21.],36,0.5760000000000001,0.5826961998827755,0.2410196999553591,True,near-rnd2,4,1,1,0.75,0.5,start,8,0
20,True,1.6902423999272287,800.0,50.0,33.0,10,0.16315789986401796,False,2,90,1.0,[21. 21.],68,1.088,1.094531900016591,0.4726565999444574,True,near-160,3,2,2,1.5,1,up,4,0
21,True,1.6765333998482674,800.0,50.0,33.0,5,0.08294859994202852,False,2,90,1.0,[21. 21.],28,0.448,0.4527383001986891,0.4542457000352442,True,near-080,5,1,1,0.75,0.5,start,8,0
22,True,1.4408124000765383,800.0,100.0,50.0,0,0.08294859994202852,False,1,0,1.0,[21. 21.],28,0.448,0.45328409993089736,0.4496961000841111,True,near-rndm,5,1,1,0.75,0.5,start,8,0
23,True,1.3604388998355716,800.0,800.0,50.0,0,0.08294859994202852,False,0,0,1.0,[21. 21.],28,0.448,0.453272300073877,0.5109441000968218,True,near-rnd2,5,1,1,0.75,0.5,start,8,0
24,True,1.2669025000650436,800.0,50.0,33.0,10,0.16204519988968968,False,2,0,1.0,[21. 21.],68,1.088,1.094206300098449,0.4027063997928053,True,near-160,4,3,3,2.25,1,up,4,0
25,True,2.2486409000121057,800.0,50.0,33.0,0,0.16204519988968968,False,2,90,1.0,[21. 21.],68,1.088,1.093907100148499,0.3445452998857945,True,near-000,5,4,4,3.0,1,up,4,0
26,True,1.8895207999739796,800.0,50.0,33.0,5,0.0820724000222981,False,2,0,1.0,[21. 21.],20,0.32,0.32385739986784756,0.535387999843806,True,near-080,6,1,1,0.75,0.5,start,8,0
27,True,1.6742694000713527,800.0,100.0,50.0,0,0.0820724000222981,False,1,90,1.0,[21. 21.],20,0.32,0.32502109999768436,0.5902014998719096,True,near-rndm,6,1,1,0.75,0.5,start,8,0
28,True,1.397839899873361,800.0,50.0,33.0,10,0.16375429998151958,False,2,0,1.0,[21. 21.],68,1.088,1.0925612999126315,0.3034739999566227,True,near-160,5,4,4,3.0,1,up,4,0
29,True,1.9743359999265522,800.0,33.0,50.0,0,0.16375429998151958,False,3,90,1.0,[21. 21.],20,0.32,0.3220986998640001,0.70880790008232,True,near-rnd2,6,1,1,0.75,0.5,start,8,0
30,True,2.079148800112307,800.0,50.0,33.0,0,0.16375429998151958,False,2,90,1.0,[21. 21.],68,1.088,1.094182200031355,0.2466128000523895,True,near-000,6,5,5,3.75,1,up,4,0
31,False,1.58947700005956,800.0,800.0,50.0,0,0.16375429998151958,False,0,0,1.0,[21. 21.],12,0.192,0.1963156999554485,0.7206174999009818,True,near-rnd2,7,1,1,0.75,0.5,start,8,0
32,True,1.5375400001648813,800.0,50.0,33.0,0,0.16375429998151958,False,2,90,1.0,[21. 21.],64,1.024,1.0309533001855016,0.34261210006661713,True,near-000,7,1,1,0.75,1,down,2,0
33,True,1.7804508002009243,800.0,50.0,33.0,10,0.16294549987651408,False,2,90,1.0,[21. 21.],68,1.088,1.09387749992311,0.33954249997623265,True,near-160,6,5,5,3.75,1,up,4,0
34,True,1.321276200003922,800.0,50.0,33.0,5,0.08200860000215471,False,2,90,1.0,[21. 21.],12,0.192,0.1994532998651266,0.72105129994452,True,near-080,7,1,1,0.75,0.5,start,8,0
35,True,1.815401699859649,800.0,33.0,50.0,0,0.08200860000215471,False,3,0,1.0,[21. 21.],12,0.192,0.19490200001746416,0.8785000999923795,False,near-rndm,7,1,0,0.75,0.5,start,8,0
36,True,2.109362799907103,800.0,50.0,33.0,5,0.0830806999001652,False,2,0,1.0,[21. 21.],4,0.064,0.07098630000837147,0.76204640022479,False,near-080,8,1,0,0.75,0.5,start,8,0
37,True,1.83694940013811,800.0,33.0,50.0,0,0.0830806999001652,False,3,90,1.0,[21. 21.],12,0.192,0.19400270003825426,0.759040999924764,True,near-rnd2,7,1,1,0.75,0.5,start,8,0
38,True,1.5274197000544518,800.0,50.0,33.0,0,0.0830806999001652,False,2,90,1.0,[21. 21.],64,1.024,1.0299127998296171,0.11109710019081831,True,near-000,8,2,2,1.5,1,down,2,0
39,False,1.7024661998730153,800.0,100.0,50.0,0,0.0830806999001652,False,1,0,1.0,[21. 21.],20,0.32,0.3273038000334054,0.5812903998885304,True,near-rndm,8,1,1,0.75,0.5,up,4,0
40,True,1.9252849998883903,800.0,50.0,33.0,10,0.16258440003730357,False,2,0,1.0,[21. 21.],64,1.024,1.0304661998525262,0.37858489993959665,True,near-160,7,1,1,0.75,1,down,2,0
41,True,2.433373900130391,800.0,50.0,33.0,0,0.16258440003730357,False,2,90,1.0,[21. 21.],64,1.024,1.0287519998382777,0.28716279985383153,True,near-000,9,3,3,2.25,1,down,2,0
42,True,1.9731040000915527,800.0,50.0,33.0,5,0.08077850006520748,False,2,0,1.0,[21. 21.],8,0.128,0.1332656000740826,1.0229081001598388,False,near-080,9,1,0,0.75,0.5,up,2,0
43,True,1.707989600021392,800.0,800.0,50.0,0,0.08077850006520748,False,0,90,1.0,[21. 21.],20,0.32,0.32290390017442405,0.7932349999900907,True,near-rndm,8,1,1,0.75,0.5,up,4,0
44,True,1.7175051998347044,800.0,50.0,33.0,10,0.1626712998840958,False,2,90,1.0,[21. 21.],64,1.024,1.0295561999082565,0.32990880007855594,True,near-160,8,2,2,1.5,1,down,2,0
45,True,1.7632627000566572,800.0,33.0,50.0,0,0.1626712998840958,False,3,90,1.0,[21. 21.],4,0.064,0.06622319994494319,1.062772500095889,True,near-rnd2,8,1,1,0.75,0.5,start,8,0
46,True,1.6552695001009852,800.0,50.0,33.0,10,0.16337290010415018,False,2,90,1.0,[21. 21.],64,1.024,1.031177599914372,0.32826270000077784,True,near-160,9,3,3,2.25,1,down,2,0
47,True,2.4313878999091685,800.0,50.0,33.0,5,0.08329600002616644,False,2,90,1.0,[21. 21.],8,0.128,0.1338180999737233,0.7227962999604642,True,near-080,10,2,1,1.5,1,up,2,0
48,True,1.642324100015685,800.0,800.0,50.0,0,0.08329600002616644,False,0,0,1.0,[21. 21.],0,0.0,0.0028053000569343567,1.0900096001569182,True,near-rnd2,9,1,1,0.75,0.5,start,8,1
49,True,1.13948559993878,800.0,33.0,50.0,0,0.08329600002616644,False,3,90,1.0,[21. 21.],20,0.32,0.3213233998976648,0.8915426998864859,True,near-rndm,9,2,2,1.5,1,up,4,0
50,True,1.4964719999115914,800.0,50.0,33.0,0,0.08329600002616644,False,2,0,1.0,[21. 21.],64,1.024,1.03149459999986,0.30541449994780123,True,near-000,10,4,4,3.0,1,down,2,0
51,True,2.660387300187722,800.0,50.0,33.0,5,0.08208530000410974,False,2,90,1.0,[21. 21.],8,0.128,0.13350440002977848,0.6299145000521094,True,near-080,11,3,2,2.25,1,up,2,0
52,True,1.32429079990834,800.0,50.0,33.0,10,0.16371840005740523,False,2,90,1.0,[21. 21.],64,1.024,1.0314074999187142,0.38283169991336763,True,near-160,10,4,4,3.0,1,down,2,0
53,True,1.6189724998548627,800.0,50.0,33.0,0,0.16371840005740523,False,2,90,1.0,[21. 21.],64,1.024,1.0285926000215113,0.5575545998290181,True,near-000,11,5,5,3.75,1,down,2,0
54,True,3.912941199960187,800.0,33.0,50.0,0,0.16371840005740523,False,3,90,1.0,[21. 21.],20,0.32,0.3219181001186371,0.6181284999474883,True,near-rndm,10,3,3,2.25,1,up,4,0
55,True,1.9011842999607325,800.0,800.0,50.0,0,0.16371840005740523,False,0,0,1.0,[21. 21.],0,0.0,0.0028240999672561884,1.000149399973452,True,near-rnd2,10,1,1,0.75,0.5,start,8,1
56,True,2.3334254999645054,800.0,50.0,33.0,0,0.16371840005740523,False,2,0,1.0,[21. 21.],62,0.992,0.9969657000619918,0.4435183999594301,True,near-000,12,1,1,0.75,1,down,2,0
57,True,2.095714399823919,800.0,100.0,50.0,0,0.16371840005740523,False,1,90,1.0,[21. 21.],20,0.32,0.3284687001723796,0.7698582001030445,True,near-rndm,11,4,4,3.0,1,up,4,0
58,True,1.4290533000603318,800.0,50.0,33.0,10,0.16225389996543527,False,2,0,1.0,[21. 21.],64,1.024,1.0295921999495476,0.6958655000198632,True,near-160,11,5,5,3.75,1,down,2,0
59,True,2.2968782999087125,800.0,33.0,50.0,0,0.16225389996543527,False,3,0,1.0,[21. 21.],0,0.0,0.0018196001183241606,1.0420979999471456,True,near-rnd2,11,1,1,0.75,0.5,start,8,1
60,True,1.6615895999129862,800.0,50.0,33.0,5,0.0820951999630779,False,2,90,1.0,[21. 21.],8,0.128,0.1318707000464201,0.7973577999509871,True,near-080,12,4,3,3.0,1,up,2,0
61,True,1.6800685001071543,800.0,50.0,33.0,5,0.08220240008085966,False,2,90,1.0,[21. 21.],8,0.128,0.13265269994735718,0.7517107999883592,True,near-080,13,5,4,3.75,1,up,2,0
62,True,2.129545999923721,800.0,800.0,50.0,0,0.08220240008085966,False,0,90,1.0,[21. 21.],0,0.0,0.0025240001268684864,0.8076432000380009,True,near-rnd2,12,1,1,0.75,0.5,start,8,1
63,True,1.1530045999679714,800.0,50.0,33.0,10,0.164066799916327,False,2,90,1.0,[21. 21.],62,0.992,0.9980134000070393,0.389123999979347,True,near-160,12,1,1,0.75,1,down,2,0
64,True,1.614716700045392,800.0,50.0,33.0,0,0.164066799916327,False,2,90,1.0,[21. 21.],62,0.992,0.9986127999145538,0.2796358000487089,True,near-000,13,2,2,1.5,1,down,2,0
65,True,4.450924000004306,800.0,33.0,50.0,0,0.164066799916327,False,3,90,1.0,[21. 21.],20,0.32,0.3221385998185724,0.7442825997713953,True,near-rndm,12,5,5,3.75,1,up,4,0
66,True,1.5760435999836773,800.0,50.0,33.0,5,0.08292090008035302,False,2,90,1.0,[21. 21.],8,0.128,0.13256689999252558,0.7228311998769641,True,near-080,14,6,5,4.5,1,up,2,0
67,True,2.0596423000097275,800.0,100.0,50.0,0,0.08292090008035302,False,1,0,1.0,[21. 21.],0,0.0,0.0060859001241624355,0.8428617001045495,False,near-rnd2,13,1,0,0.75,0.5,start,8,1
68,False,1.3767930001486093,800.0,50.0,33.0,10,0.16200000001117587,False,2,90,1.0,[21. 21.],62,0.992,0.9980291000101715,0.1495846000034362,True,near-160,13,2,2,1.5,1,down,2,0
69,True,2.306986799929291,800.0,100.0,50.0,0,0.16200000001117587,False,1,90,1.0,[21. 21.],16,0.256,0.26583630009554327,0.6682794999796897,True,near-rndm,13,1,1,0.75,1,down,2,0
70,True,1.8228150999639183,800.0,50.0,33.0,0,0.16200000001117587,False,2,90,1.0,[21. 21.],62,0.992,0.9964862999040633,0.49534060014411807,True,near-000,14,3,3,2.25,1,down,2,0
71,True,1.643423599889502,800.0,50.0,33.0,0,0.16200000001117587,False,2,0,1.0,[21. 21.],62,0.992,0.9963150999974459,0.7021301998756826,True,near-000,15,4,4,3.0,1,down,2,0
72,True,1.6365806001704186,800.0,800.0,50.0,0,0.16200000001117587,False,0,90,1.0,[21. 21.],4,0.064,0.06699399999342859,0.7365290999878198,True,near-rnd2,14,1,1,0.75,0.5,up,2,0
73,True,1.2471080000977963,800.0,50.0,33.0,5,0.08166270004585385,False,2,0,1.0,[21. 21.],8,0.128,0.1333522000350058,0.7886909998487681,False,near-080,15,7,5,5.25,1,up,2,0
74,True,1.2697471000719815,800.0,33.0,50.0,0,0.08166270004585385,False,3,0,1.0,[21. 21.],16,0.256,0.2586129999253899,0.8735675001516938,False,near-rndm,14,2,1,1.5,1,down,2,0
75,True,1.5759827999863774,800.0,50.0,33.0,10,0.16190509987063706,False,2,0,1.0,[21. 21.],62,0.992,0.9994574999436736,0.39661499997600913,True,near-160,13,2,2,1.5,1,down,2,0
76,True,1.8688890999183059,800.0,50.0,33.0,10,0.1631622000131756,False,2,90,1.0,[21. 21.],62,0.992,0.9979513001162559,0.3494951000902802,True,near-160,14,3,3,2.25,1,down,2,0
77,True,2.3304528000298887,800.0,800.0,50.0,0,0.1631622000131756,False,0,0,1.0,[21. 21.],16,0.256,0.2611722000874579,0.6200989000499249,True,near-rndm,15,3,2,2.25,1,down,2,0
78,True,1.165669099893421,800.0,50.0,33.0,5,0.08258080016821623,False,2,90,1.0,[21. 21.],8,0.128,0.13307329989038408,0.7714158999733627,True,near-080,16,8,6,6.0,1,up,2,0
79,True,1.0018615000881255,800.0,33.0,50.0,0,0.08258080016821623,False,3,90,1.0,[21. 21.],4,0.064,0.06556960009038448,1.1209591999650002,True,near-rnd2,15,2,2,1.5,1,up,2,0
80,True,1.8665281999856234,800.0,50.0,33.0,0,0.08258080016821623,False,2,0,1.0,[21. 21.],62,0.992,0.9986290000379086,0.6680030999705195,True,near-000,16,5,5,3.75,1,down,2,0
81,True,2.4348561000078917,800.0,800.0,50.0,0,0.08258080016821623,False,0,90,1.0,[21. 21.],16,0.256,0.2599404000211507,0.6228181000333279,True,near-rndm,16,4,3,3.0,1,down,2,0
82,True,0.9933092999272048,800.0,50.0,33.0,10,0.16334970016032457,False,2,90,1.0,[21. 21.],62,0.992,0.9974632000084966,0.588931200094521,True,near-160,15,4,4,3.0,1,down,2,0
83,True,1.7078274998348206,800.0,50.0,33.0,0,0.16334970016032457,False,2,0,1.0,[21. 21.],60,0.96,0.9655026998370886,0.5068951998837292,True,near-000,17,1,1,0.75,1,down,2,0
84,True,1.7232778000179678,800.0,33.0,50.0,0,0.16334970016032457,False,3,0,1.0,[21. 21.],4,0.064,0.06692290003411472,1.0753710998687893,False,near-rnd2,16,3,2,2.25,1,up,2,0
85,True,1.7892080000601709,800.0,50.0,33.0,5,0.08195100002922118,False,2,0,1.0,[21. 21.],8,0.128,0.13288859999738634,0.6164996000006795,False,near-080,17,9,6,6.75,1,up,2,1
86,True,1.4880633000284433,800.0,100.0,50.0,0,0.08195100002922118,False,1,0,1.0,[21. 21.],4,0.064,0.0732551000546664,0.8145164998713881,True,near-rnd2,17,4,3,3.0,1,up,2,0
87,True,1.4881233999039978,800.0,33.0,50.0,0,0.08195100002922118,False,3,90,1.0,[21. 21.],16,0.256,0.2594363000243902,0.9079067001584917,True,near-rndm,17,5,4,3.75,1,down,2,0
88,True,1.5290548000484705,800.0,50.0,33.0,0,0.08195100002922118,False,2,0,1.0,[21. 21.],60,0.96,0.9672347002197057,0.45375700015574694,True,near-000,18,2,2,1.5,1,down,2,0
89,True,1.5311694000847638,800.0,50.0,33.0,10,0.16217599995434284,False,2,90,1.0,[21. 21.],62,0.992,0.9982972000725567,0.5154846999794245,True,near-160,16,5,5,3.75,1,down,2,0
90,True,2.0086828998755664,800.0,50.0,33.0,5,0.08103929995559156,False,2,90,1.0,[21. 21.],8,0.128,0.13429729989729822,0.6192942999769002,True,near-080,18,10,7,7.5,1,up,2,1
91,True,1.3037266000173986,800.0,50.0,33.0,0,0.08103929995559156,False,2,0,1.0,[21. 21.],60,0.96,0.965299499919638,0.13693020003847778,True,near-000,19,3,3,2.25,1,down,2,0
92,True,1.4968091000337154,800.0,100.0,50.0,0,0.08103929995559156,False,1,0,1.0,[21. 21.],4,0.064,0.0724420000333339,0.6210715998895466,True,near-rnd2,18,5,4,3.75,1,up,2,0
93,True,1.1485950001515448,800.0,50.0,33.0,5,0.08197310008108616,False,2,90,1.0,[21. 21.],8,0.128,0.1331907999701798,0.5998211000114679,True,near-080,19,11,8,8.25,1,up,2,1
94,True,1.3029859999660403,800.0,100.0,50.0,0,0.08197310008108616,False,1,90,1.0,[21. 21.],16,0.256,0.26064180000685155,0.6376614000182599,True,near-rndm,18,6,5,4.5,1,down,2,0
95,True,2.557386500062421,800.0,50.0,33.0,10,0.1628985998686403,False,2,0,1.0,[21. 21.],60,0.96,0.9671255999710411,0.02429260010831058,True,near-160,17,1,1,0.75,1,down,2,0
96,True,1.6680938999634236,800.0,100.0,50.0,0,0.1628985998686403,False,1,90,1.0,[21. 21.],4,0.064,0.07193490001372993,0.6912288998719305,True,near-rnd2,19,6,5,4.5,1,up,2,0
97,True,2.366068300092593,800.0,50.0,33.0,10,0.16234649997204542,False,2,90,1.0,[21. 21.],60,0.96,0.9680750998668373,0.46686100005172193,True,near-160,18,2,2,1.5,1,down,2,0
98,True,1.9969647999387234,800.0,50.0,33.0,0,0.16234649997204542,False,2,90,1.0,[21. 21.],60,0.96,0.9663622998632491,0.49170139990746975,True,near-000,20,4,4,3.0,1,down,2,0
99,True,1.5273892998229712,800.0,50.0,33.0,5,0.08216170012019575,False,2,90,1.0,[21. 21.],8,0.128,0.13233730010688305,0.5538393000606447,True,near-080,20,12,9,9.0,1,up,2,1
100,True,1.3795395998749882,800.0,100.0,50.0,0,0.08216170012019575,False,1,90,1.0,[21. 21.],16,0.256,0.26381959998980165,0.7068046999629587,True,near-rndm,19,7,6,5.25,1,down,2,0
101,True,1.6620128001086414,800.0,50.0,33.0,5,0.082955899881199,False,2,0,1.0,[21. 21.],8,0.128,0.13429649989120662,0.5585799000691622,False,near-080,21,13,9,9.75,1,up,2,1
102,True,1.9185104998759925,800.0,33.0,50.0,0,0.082955899881199,False,3,0,1.0,[21. 21.],4,0.064,0.06784719997085631,1.0605359999462962,False,near-rnd2,20,7,5,5.25,1,up,2,0
103,True,4.142387800151482,800.0,50.0,33.0,0,0.082955899881199,False,2,90,1.0,[21. 21.],60,0.96,0.9666183998342603,0.567187299951911,True,near-000,21,5,5,3.75,1,down,2,0
104,True,1.5118722000624985,800.0,800.0,50.0,0,0.082955899881199,False,0,90,1.0,[21. 21.],16,0.256,0.2610243000090122,0.6432713998947293,True,near-rndm,20,8,7,6.0,1,down,2,0
105,True,1.4525073999539018,800.0,50.0,33.0,10,0.1627190001308918,False,2,0,1.0,[21. 21.],60,0.96,0.966499499976635,0.32513349992223084,True,near-160,19,3,3,2.25,1,down,2,0
106,True,1.297374099958688,800.0,100.0,50.0,0,0.1627190001308918,False,1,90,1.0,[21. 21.],16,0.256,0.2627746001817286,0.6651069999206811,True,near-rndm,21,9,8,6.75,1,down,2,1
107,True,1.531468499917537,800.0,50.0,33.0,5,0.08353379997424781,False,2,0,1.0,[21. 21.],8,0.128,0.13252929993905127,0.7418876998126507,False,near-080,22,14,9,10.5,1,up,2,1
108,True,1.3764531000051647,800.0,800.0,50.0,0,0.08353379997424781,False,0,0,1.0,[21. 21.],4,0.064,0.06783189997076988,0.8546999001409858,True,near-rnd2,21,8,6,6.0,1,up,2,0
109,True,1.8085223000962287,800.0,50.0,33.0,10,0.16302390000782907,False,2,90,1.0,[21. 21.],60,0.96,0.9652855999302119,0.081397500121966,False,near-160,20,4,3,3.0,1,down,2,0
110,True,1.3371641000267118,800.0,50.0,33.0,0,0.16302390000782907,False,2,0,1.0,[21. 21.],58,0.928,0.9324100997764617,0.35451640002429485,True,near-000,22,1,1,0.75,1,down,4,0
111,True,1.5092996000312269,800.0,50.0,33.0,0,0.16302390000782907,False,2,90,1.0,[21. 21.],58,0.928,0.9360815999098122,0.13182719983160496,True,near-000,23,2,2,1.5,1,down,4,0
112,True,2.6785748000256717,800.0,50.0,33.0,10,0.1983274999074638,False,2,90,1.0,[21. 21.],60,0.96,0.9672385000158101,0.3009569998830557,True,near-160,21,5,4,3.75,1,down,2,0
113,True,1.544976499862969,800.0,100.0,50.0,0,0.1983274999074638,False,1,0,1.0,[21. 21.],4,0.064,0.07020750013180077,0.9925794000737369,True,near-rnd2,22,9,7,6.75,1,up,2,1
114,True,1.3494371001143008,800.0,800.0,50.0,0,0.1983274999074638,False,0,0,1.0,[21. 21.],15,0.24,0.24517720006406307,0.6524779999163002,True,near-rndm,22,1,1,0.75,1,down,1,0
115,True,0.9252154999412596,800.0,50.0,33.0,5,0.08289439999498427,False,2,0,1.0,[21. 21.],9,0.14400000000000002,0.14921730011701584,0.7318814999889582,True,near-080,23,1,1,0.75,1,up,1,0
116,True,1.3246841998770833,800.0,50.0,33.0,0,0.08289439999498427,False,2,90,1.0,[21. 21.],58,0.928,0.9352064998820424,0.33898449991829693,True,near-000,24,3,3,2.25,1,down,4,0
117,True,1.463212599977851,800.0,50.0,33.0,5,0.08230179990641773,False,2,90,1.0,[21. 21.],9,0.14400000000000002,0.14927029982209206,0.604019199963659,True,near-080,24,2,2,1.5,2,up,1,0
118,False,1.2537301001138985,800.0,33.0,50.0,0,0.08230179990641773,False,3,0,1.0,[21. 21.],15,0.24,0.24278440000489354,0.9408040000125766,False,near-rndm,23,2,1,1.5,2,down,1,0
119,True,2.25215720012784,800.0,50.0,33.0,10,0.16334189986810088,False,2,0,1.0,[21. 21.],60,0.96,0.9639109000563622,0.3782307000365108,True,near-160,22,6,5,4.5,1,down,2,0
120,True,1.9561274000443518,800.0,33.0,50.0,0,0.16334189986810088,False,3,0,1.0,[21. 21.],4,0.064,0.06558699999004602,1.0209548000711948,False,near-rnd2,23,10,7,7.5,1,up,2,1
121,True,1.492858099984005,800.0,50.0,33.0,5,0.0837234000209719,False,2,0,1.0,[21. 21.],9,0.14400000000000002,0.1491725998930633,0.6541677999775857,True,near-080,25,3,3,2.25,2,up,1,0
122,True,1.8926933999173343,800.0,50.0,33.0,0,0.0837234000209719,False,2,0,1.0,[21. 21.],58,0.928,0.9349474001210183,0.5239568999968469,True,near-000,25,4,4,3.0,1,down,4,0
123,True,3.9513618000783026,800.0,50.0,33.0,10,0.16205220017582178,False,2,0,1.0,[21. 21.],60,0.96,0.9675361001864076,0.9467105998191983,True,near-160,23,7,6,5.25,1,down,2,0
124,True,1.785626599797979,800.0,33.0,50.0,0,0.16205220017582178,False,3,0,1.0,[21. 21.],15,0.24,0.24192679999396205,1.7087979998905212,True,near-rndm,23,2,2,1.5,2,down,1,0
125,True,1.480225799838081,800.0,100.0,50.0,0,0.16205220017582178,False,1,90,1.0,[21. 21.],4,0.064,0.07099870010279119,1.3196226998697966,False,near-rnd2,24,11,7,8.25,1,up,2,1
126,True,1.5030559999868274,800.0,33.0,50.0,0,0.16205220017582178,False,3,90,1.0,[21. 21.],15,0.24,0.2420051998924464,0.9141315999440849,True,near-rndm,24,3,3,2.25,2,down,1,0
127,True,1.8691125998739153,800.0,50.0,33.0,0,0.16205220017582178,False,2,0,1.0,[21. 21.],58,0.928,0.9369024001061916,0.4225812000222504,True,near-000,26,5,5,3.75,1,down,4,0
128,True,1.3868899999652058,800.0,100.0,50.0,0,0.16205220017582178,False,1,0,1.0,[21. 21.],5,0.08,0.08470780006609857,0.7206985000520945,True,near-rnd2,25,1,1,0.75,1,up,1,0
129,True,2.0874583998229355,800.0,50.0,33.0,10,0.16314479988068342,False,2,0,1.0,[21. 21.],60,0.96,0.9658437001053244,0.2434482998214662,True,near-160,24,8,7,6.0,1,down,2,0
130,True,2.36165350000374,800.0,50.0,33.0,5,0.08191359997726977,False,2,90,1.0,[21. 21.],9,0.14400000000000002,0.18603369989432395,0.7469295000191778,True,near-080,26,4,4,3.0,2,up,1,0
131,True,0.9703199998475611,800.0,50.0,33.0,5,0.08379449998028576,False,2,0,1.0,[21. 21.],9,0.14400000000000002,0.15103480010293424,0.9961919998750091,True,near-080,27,5,5,3.75,2,up,1,0
132,True,1.6684028999879956,800.0,33.0,50.0,0,0.08379449998028576,False,3,0,1.0,[21. 21.],15,0.24,0.24318809993565083,0.9926507000345737,False,near-rndm,25,4,3,3.0,2,down,1,0
133,True,1.3178771000821143,800.0,100.0,50.0,0,0.08379449998028576,False,1,90,1.0,[21. 21.],5,0.08,0.08715080004185438,0.83223079983145,True,near-rnd2,26,2,2,1.5,2,up,1,0
134,True,2.7718204997945577,800.0,50.0,33.0,10,0.1619726000353694,False,2,90,1.0,[21. 21.],60,0.96,0.9657030000817031,0.4207329999189824,True,near-160,25,9,8,6.75,1,down,2,1
135,True,1.639835000038147,800.0,50.0,33.0,0,0.1619726000353694,False,2,90,1.0,[21. 21.],54,0.864,0.9116079001687467,0.2587812999263406,True,near-000,27,1,1,0.75,1,down,8,0
136,True,1.4692899000365287,800.0,50.0,33.0,5,0.08308580005541444,False,2,90,1.0,[21. 21.],9,0.14400000000000002,0.1508963000960648,0.5418899999931455,True,near-080,28,6,6,4.5,2,up,1,0
137,True,1.3661376999225467,800.0,50.0,33.0,0,0.08308580005541444,False,2,0,1.0,[21. 21.],54,0.864,0.8709432000759989,0.38043490005657077,True,near-000,28,2,2,1.5,0.5,down,8,0
138,True,2.367609500186518,800.0,33.0,50.0,0,0.08308580005541444,False,3,0,1.0,[21. 21.],15,0.24,0.2422602998558432,0.8431416000239551,True,near-rndm,26,5,4,3.75,2,down,1,0
139,True,1.3071230000350624,800.0,100.0,50.0,0,0.08308580005541444,False,1,0,1.0,[21. 21.],5,0.08,0.08742969995364547,0.7171676999423653,False,near-rnd2,27,3,2,2.25,2,up,1,0
140,True,1.519950000103563,800.0,50.0,33.0,10,0.1627192001324147,False,2,0,1.0,[21. 21.],59,0.9440000000000001,0.9503804000560194,0.17316409992054105,False,near-160,26,1,0,0.75,1,down,2,0
141,True,1.3744348001200706,800.0,50.0,33.0,10,0.16292329994030297,False,2,0,1.0,[21. 21.],59,0.9440000000000001,0.9500265999231488,0.024159499909728765,False,near-160,27,2,0,1.5,1,down,2,0
142,True,1.9488629999104887,800.0,50.0,33.0,0,0.16292329994030297,False,2,90,1.0,[21. 21.],54,0.864,0.870775599963963,0.32587729999795556,True,near-000,29,3,3,2.25,0.5,down,8,0
143,False,1.6120190001092851,800.0,800.0,50.0,0,0.16292329994030297,False,0,0,1.0,[21. 21.],15,0.24,0.24493560008704662,0.7479490998666734,True,near-rndm,27,6,5,4.5,2,down,1,0
144,True,0.987449900014326,800.0,33.0,50.0,0,0.16292329994030297,False,3,0,1.0,[21. 21.],5,0.08,0.08292419998906553,1.0088299000635743,False,near-rnd2,28,4,2,3.0,2,up,1,0
145,True,1.9223293999675661,800.0,50.0,33.0,5,0.08196959993802011,False,2,90,1.0,[21. 21.],9,0.14400000000000002,0.14816029998473823,0.6999913000036031,True,near-080,29,7,7,5.25,2,up,1,0
146,True,1.8197001998778433,800.0,800.0,50.0,0,0.08196959993802011,False,0,90,1.0,[21. 21.],15,0.24,0.24350959993898869,0.6609042999334633,True,near-rndm,27,6,5,4.5,2,down,1,0
147,True,1.5200346999336034,800.0,50.0,33.0,0,0.08196959993802011,False,2,0,1.0,[21. 21.],46,0.736,0.7406636998057365,0.33364120009355247,True,near-000,30,1,1,0.75,0.5,down,8,0
148,True,2.41132939979434,800.0,50.0,33.0,10,0.16153770009987056,False,2,0,1.0,[21. 21.],61,0.976,0.9800122999586165,0.33987100003287196,True,near-160,28,1,1,0.75,1,up,1,0
149,True,1.5665835998952389,800.0,33.0,50.0,0,0.16153770009987056,False,3,0,1.0,[21. 21.],5,0.08,0.08210220001637936,0.9765616001095623,False,near-rnd2,29,5,2,3.75,2,up,1,0
150,True,2.6612166999839246,800.0,50.0,33.0,5,0.08257049997337162,False,2,90,1.0,[21. 21.],9,0.14400000000000002,0.15061770007014275,0.6731199000496417,True,near-080,30,8,8,6.0,2,up,1,0
151,True,1.2983520000707358,800.0,33.0,50.0,0,0.08257049997337162,False,3,90,1.0,[21. 21.],5,0.08,0.08083390002138913,0.7697964999824762,True,near-rnd2,30,6,3,4.5,2,up,1,0
152,True,1.3904835998546332,800.0,33.0,50.0,0,0.08257049997337162,False,3,90,1.0,[21. 21.],15,0.24,0.2433541000355035,0.8928631998132914,True,near-rndm,28,7,6,5.25,2,down,1,0
153,True,1.1036545999813825,800.0,50.0,33.0,0,0.08257049997337162,False,2,90,1.0,[21. 21.],46,0.736,0.741708500077948,0.42981240013614297,True,near-000,31,2,2,1.5,0.5,down,8,0
154,True,1.5610310998745263,800.0,50.0,33.0,10,0.1620929001364857,False,2,90,1.0,[21. 21.],61,0.976,0.9835979999043047,0.2744066999293864,True,near-160,29,2,2,1.5,2,up,1,0
155,True,1.1845438999589533,800.0,50.0,33.0,5,0.08272759988904,False,2,0,1.0,[21. 21.],9,0.14400000000000002,0.1508839000016451,0.5954390000551939,False,near-080,31,9,8,6.75,2,up,1,1
156,False,1.4542505000717938,800.0,50.0,33.0,5,0.08335119998082519,False,2,90,1.0,[21. 21.],9,0.14400000000000002,0.1486525998916477,1.391308099962771,True,near-080,32,10,9,7.5,2,up,1,1
157,True,2.283611499937251,800.0,33.0,50.0,0,0.08335119998082519,False,3,0,1.0,[21. 21.],15,0.24,0.24254700005985796,0.6792991999536753,False,near-rndm,29,8,6,6.0,2,down,1,0
158,True,1.7630139999091625,800.0,50.0,33.0,0,0.08335119998082519,False,2,0,1.0,[21. 21.],46,0.736,0.7403367999941111,0.3564673999790102,True,near-000,32,3,3,2.25,0.5,down,8,0
159,True,1.4823857999872416,800.0,50.0,33.0,10,0.16092709987424314,False,2,0,1.0,[21. 21.],61,0.976,0.9804545000661165,0.32126799994148314,True,near-160,30,3,3,2.25,2,up,1,0
160,True,1.38629120006226,800.0,33.0,50.0,0,0.16092709987424314,False,3,90,1.0,[21. 21.],5,0.08,0.08117729984223843,1.0431782000232488,True,near-rnd2,31,7,4,5.25,2,up,1,0
161,True,2.246476300060749,800.0,50.0,33.0,0,0.16092709987424314,False,2,90,1.0,[21. 21.],38,0.608,0.613835799973458,0.4509883001446724,True,near-000,33,1,1,0.75,0.5,down,8,0
162,True,1.5197429999243468,800.0,33.0,50.0,0,0.16092709987424314,False,3,0,1.0,[21. 21.],5,0.08,0.08310599997639656,1.0164426998235285,False,near-rnd2,32,8,4,6.0,2,up,1,0
163,True,1.5118176001124084,800.0,50.0,33.0,10,0.16293590003624558,False,2,0,1.0,[21. 21.],61,0.976,0.982308299979195,0.37346250005066395,True,near-160,31,4,4,3.0,2,up,1,0
164,True,1.3343895999714732,800.0,800.0,50.0,0,0.16293590003624558,False,0,90,1.0,[21. 21.],15,0.24,0.2437262001913041,0.6422158000059426,True,near-rndm,30,9,7,6.75,2,down,1,1
165,True,1.300434899982065,800.0,50.0,33.0,5,0.0829702999908477,False,2,0,1.0,[21. 21.],9,0.14400000000000002,0.14850510004907846,0.8423958998173475,False,near-080,32,10,8,7.5,2,up,1,1
166,True,1.30735469982028,800.0,800.0,50.0,0,0.0829702999908477,False,0,90,1.0,[21. 21.],5,0.08,0.08462479989975691,0.6758393000345677,True,near-rnd2,33,9,5,6.75,2,up,1,1
167,True,0.924780499888584,800.0,50.0,33.0,0,0.0829702999908477,False,2,0,1.0,[21. 21.],38,0.608,0.6132002000231296,0.4587207001168281,True,near-000,34,2,2,1.5,0.5,down,8,0
168,True,1.5102684998419136,800.0,50.0,33.0,5,0.08434329996816814,False,2,90,1.0,[21. 21.],9,0.14400000000000002,0.148359099868685,0.7363169000018388,True,near-080,33,11,9,8.25,2,up,1,1
169,True,3.1462645998690277,800.0,800.0,50.0,0,0.08434329996816814,False,0,0,1.0,[21. 21.],15,0.24,0.24283709982410073,0.5430511999875307,True,near-rndm,31,10,8,7.5,2,down,1,1
170,True,0.9943563998676836,800.0,50.0,33.0,10,0.16226440016180277,False,2,0,1.0,[21. 21.],61,0.976,0.9803937000688165,0.14913689997047186,False,near-160,32,5,4,3.75,2,up,1,0
171,True,1.2026913000736386,800.0,33.0,50.0,0,0.16226440016180277,False,3,90,1.0,[21. 21.],5,0.08,0.08201560005545616,0.9618009999394417,True,near-rnd2,34,10,6,7.5,2,up,1,1
172,True,1.3249167001340538,800.0,100.0,50.0,0,0.16226440016180277,False,1,0,1.0,[21. 21.],15,0.24,0.24636679980903864,0.821223400067538,True,near-rndm,32,11,9,8.25,2,down,1,1
173,True,2.2131103998981416,800.0,50.0,33.0,0,0.16226440016180277,False,2,90,1.0,[21. 21.],38,0.608,0.616187599953264,0.586535400012508,True,near-000,35,3,3,2.25,0.5,down,8,0
174,True,1.8316558001097292,800.0,50.0,33.0,5,0.08335410011932254,False,2,90,1.0,[21. 21.],9,0.14400000000000002,0.1497982998844236,0.669238599948585,True,near-080,34,12,10,9.0,2,up,1,1
175,True,1.2098640999756753,800.0,50.0,33.0,10,0.16223290003836155,False,2,0,1.0,[21. 21.],61,0.976,0.9805914999451488,0.3914222000166774,True,near-160,33,6,5,4.5,2,up,1,0
176,True,1.220323899993673,800.0,100.0,50.0,0,0.16223290003836155,False,1,90,1.0,[21. 21.],15,0.24,0.24429469997994602,0.6224338999018073,True,near-rndm,33,12,10,9.0,2,down,1,1
177,True,1.2415694000665098,800.0,50.0,33.0,10,0.16244639991782606,False,2,90,1.0,[21. 21.],61,0.976,0.9802822999190539,0.42959080007858574,True,near-160,34,7,6,5.25,2,up,1,0
178,True,2.474414700176567,800.0,50.0,33.0,0,0.16244639991782606,False,2,90,1.0,[21. 21.],30,0.48,0.485047800000757,0.5262716999277472,True,near-000,36,1,1,0.75,0.5,down,8,0
179,True,1.3045279001817107,800.0,100.0,50.0,0,0.16244639991782606,False,1,90,1.0,[21. 21.],5,0.08,0.08942710002884269,1.0769421998411417,True,near-rnd2,35,11,7,8.25,2,up,1,1
180,True,1.9724292000755668,800.0,50.0,33.0,5,0.08185740001499653,False,2,90,1.0,[21. 21.],9,0.14400000000000002,0.15041560004465282,0.6853549999650568,True,near-080,35,13,11,9.75,2,up,1,1
181,True,1.5569255000445992,800.0,800.0,50.0,0,0.08185740001499653,False,0,0,1.0,[21. 21.],15,0.24,0.2434323001652956,0.6268809998873621,True,near-rndm,34,13,11,9.75,2,down,1,1
182,True,1.113266099942848,800.0,50.0,33.0,0,0.08185740001499653,False,2,0,1.0,[21. 21.],30,0.48,0.4855962998699397,0.5441690001171082,False,near-000,37,2,1,1.5,0.5,down,8,0
183,True,1.2353046999778599,800.0,800.0,50.0,0,0.08185740001499653,False,0,0,1.0,[21. 21.],5,0.08,0.08507739985361695,0.5586474000010639,True,near-rnd2,36,12,8,9.0,2,up,1,1
184,True,2.6211139000952244,800.0,50.0,33.0,5,0.0818770001642406,False,2,0,1.0,[21. 21.],9,0.14400000000000002,0.15035649994388223,0.5582538999151438,False,near-080,36,14,11,10.5,2,up,1,1
185,True,1.5682769999839365,800.0,50.0,33.0,10,0.1636248999275267,False,2,90,1.0,[21. 21.],61,0.976,0.9826810001395643,0.14895869977772236,True,near-160,35,8,7,6.0,2,up,1,0
186,True,2.3001774998847395,800.0,800.0,50.0,0,0.1636248999275267,False,0,0,1.0,[21. 21.],15,0.24,0.24483469990082085,0.5639206999912858,True,near-rndm,35,14,12,10.5,2,down,1,1
187,True,1.4020000000018626,800.0,100.0,50.0,0,0.1636248999275267,False,1,90,1.0,[21. 21.],5,0.08,0.08796399994753301,0.623460799921304,True,near-rnd2,37,13,9,9.75,2,up,1,1
188,True,1.5697357000317425,800.0,50.0,33.0,0,0.1636248999275267,False,2,90,1.0,[21. 21.],30,0.48,0.486932200146839,0.5066680000163615,True,near-000,38,3,2,2.25,0.5,down,8,0
189,True,1.5950081998016685,800.0,50.0,33.0,5,0.08377260016277432,False,2,90,1.0,[21. 21.],9,0.14400000000000002,0.14890679996460676,0.7327878000214696,True,near-080,37,15,12,11.25,2,up,1,1
190,True,1.3452562999445945,800.0,50.0,33.0,10,0.1623490999918431,False,2,90,1.0,[21. 21.],61,0.976,0.9812378000933677,0.32111290004104376,True,near-160,36,9,8,6.75,2,up,1,1
191,True,1.170075299916789,800.0,800.0,50.0,0,0.1623490999918431,False,0,90,1.0,[21. 21.],5,0.08,0.08375200000591576,0.7013294000644237,True,near-rnd2,38,14,10,10.5,2,up,1,1
192,True,0.9634179000277072,800.0,50.0,33.0,0,0.1623490999918431,False,2,90,1.0,[21. 21.],30,0.48,0.48720040009357035,0.5162790000904351,True,near-000,39,4,3,3.0,0.5,down,8,0
193,True,1.226924099959433,800.0,33.0,50.0,0,0.1623490999918431,False,3,0,1.0,[21. 21.],15,0.24,0.24420939991250634,1.1985196999739856,False,near-rndm,36,15,12,11.25,2,down,1,1
194,True,1.7045532998163253,800.0,50.0,33.0,5,0.0814839000813663,False,2,0,1.0,[21. 21.],9,0.14400000000000002,0.1483692000620067,0.9864373998716474,True,near-080,38,16,13,12.0,2,up,1,1
195,True,1.4762963999528438,800.0,50.0,33.0,10,0.16251970012672246,False,2,90,1.0,[21. 21.],61,0.976,0.9803055000957102,0.3500860999338329,True,near-160,37,10,9,7.5,2,up,1,1
196,True,4.273013200145215,800.0,800.0,50.0,0,0.16251970012672246,False,0,0,1.0,[21. 21.],5,0.08,0.08398879994638264,0.5985163999721408,True,near-rnd2,39,15,11,11.25,2,up,1,1
197,True,0.9676615998614579,800.0,33.0,50.0,0,0.16251970012672246,False,3,0,1.0,[21. 21.],15,0.24,0.24218310019932687,1.0139123999979347,False,near-rndm,37,16,12,12.0,2,down,1,1
198,True,1.2446744001936167,800.0,50.0,33.0,0,0.16251970012672246,False,2,90,1.0,[21. 21.],30,0.48,0.4876331000123173,0.5137458997778594,True,near-000,40,5,4,3.75,0.5,down,8,0
199,True,1.156403899891302,800.0,50.0,33.0,10,0.16172620002180338,False,2,90,1.0,[21. 21.],61,0.976,0.9805628000758588,0.08682289998978376,True,near-160,38,11,10,8.25,2,up,1,1
200,True,2.7271079998463392,800.0,50.0,33.0,0,0.16172620002180338,False,2,0,1.0,[21. 21.],30,0.48,0.4854828999377787,0.5546023999340832,True,near-000,41,6,5,4.5,0.5,down,8,0
201,True,2.439271700102836,800.0,800.0,50.0,0,0.16172620002180338,False,0,90,1.0,[21. 21.],5,0.08,0.08358430000953376,0.7006520999129862,True,near-rnd2,40,16,12,12.0,2,up,1,1
202,True,2.2883965000510216,800.0,50.0,33.0,10,0.16208000015467405,False,2,0,1.0,[21. 21.],61,0.976,0.982694200007245,0.3171224999241531,True,near-160,39,12,11,9.0,2,up,1,1
203,True,1.2578963001724333,800.0,50.0,33.0,10,0.1627837000414729,False,2,90,1.0,[21. 21.],61,0.976,0.9834414999932051,0.06548759993165731,True,near-160,40,13,12,9.75,2,up,1,1
204,True,1.6406371002085507,800.0,100.0,50.0,0,0.1627837000414729,False,1,90,1.0,[21. 21.],15,0.24,0.24753599986433983,0.6173485000617802,True,near-rndm,38,17,13,12.75,2,down,1,2
205,True,1.937000999925658,800.0,100.0,50.0,0,0.1627837000414729,False,1,90,1.0,[21. 21.],5,0.08,0.08823230001144111,0.7898688002023846,True,near-rnd2,41,17,13,12.75,2,up,1,2
206,True,2.0469249000307173,800.0,50.0,33.0,0,0.1627837000414729,False,2,90,1.0,[21. 21.],30,0.48,0.48711830005049706,0.713248300133273,True,near-000,42,7,6,5.25,0.5,down,8,0
207,True,1.0829230002127588,800.0,50.0,33.0,0,0.1627837000414729,False,2,90,1.0,[21. 21.],22,0.352,0.3589476998895407,0.6197628998197615,True,near-000,43,1,1,0.75,0.5,down,8,0
208,True,1.5058500999584794,800.0,800.0,50.0,0,0.1627837000414729,False,0,0,1.0,[21. 21.],14,0.224,0.229467700002715,0.505865499842912,True,near-rndm,39,1,1,0.75,2,down,1,2
209,True,1.1213485999032855,800.0,800.0,50.0,0,0.1627837000414729,False,0,90,1.0,[21. 21.],5,0.08,0.08459210000000894,0.5642333999276161,True,near-rnd2,42,18,14,13.5,2,up,1,2
210,True,1.9592156000435352,800.0,100.0,50.0,0,0.1627837000414729,False,1,90,1.0,[21. 21.],13,0.20800000000000002,0.2158868000842631,0.4842079998925328,True,near-rndm,40,1,1,0.75,2,down,1,2
211,True,1.3828601001296192,800.0,800.0,50.0,0,0.1627837000414729,False,0,90,1.0,[21. 21.],5,0.08,0.0833445000462234,0.5611966999713331,True,near-rnd2,43,19,15,14.25,2,up,1,2
212,True,1.0252160001546144,800.0,50.0,33.0,0,0.1627837000414729,False,2,90,1.0,[21. 21.],22,0.352,0.3560583000071347,0.8522163999732584,False,near-000,44,2,1,1.5,0.5,down,8,0
213,True,1.1687550998758525,800.0,33.0,50.0,0,0.1627837000414729,False,3,90,1.0,[21. 21.],5,0.08,0.0812401999719441,1.0400910000316799,True,near-rnd2,44,20,16,15.0,2,up,1,2
214,True,3.656082100002095,800.0,100.0,50.0,0,0.1627837000414729,False,1,90,1.0,[21. 21.],12,0.192,0.19843160011805594,0.5405449001118541,True,near-rndm,41,1,1,0.75,2,down,1,2
215,True,1.3439577999524772,800.0,50.0,33.0,0,0.1627837000414729,False,2,0,1.0,[21. 21.],22,0.352,0.3595771000254899,0.5815065000206232,True,near-000,45,3,2,2.25,0.5,down,8,0
216,True,1.0596237999852747,800.0,50.0,33.0,0,0.1627837000414729,False,2,90,1.0,[21. 21.],22,0.352,0.3579897000454366,0.8233108001295477,False,near-000,46,4,2,3.0,0.5,down,8,0
217,True,1.5023326000664383,800.0,800.0,50.0,0,0.1627837000414729,False,0,0,1.0,[21. 21.],5,0.08,0.08444870007224381,0.6535453998949379,True,near-rnd2,45,21,17,15.75,2,up,1,2
218,True,2.764416499994695,800.0,800.0,50.0,0,0.1627837000414729,False,0,90,1.0,[21. 21.],11,0.176,0.18171569984406233,0.5428527998737991,True,near-rndm,42,1,1,0.75,2,down,1,2
219,True,1.3338292001280934,800.0,100.0,50.0,0,0.1627837000414729,False,1,90,1.0,[21. 21.],10,0.16,0.16502120019868016,0.5328341000713408,True,near-rndm,43,1,1,0.75,2,down,1,2
220,True,0.9944821998942643,800.0,50.0,33.0,0,0.1627837000414729,False,2,90,1.0,[21. 21.],30,0.48,0.4864050999749452,0.3918035998940468,True,near-000,47,1,1,0.75,0.5,up,4,0
221,True,1.6125603001564741,800.0,800.0,50.0,0,0.1627837000414729,False,0,0,1.0,[21. 21.],5,0.08,0.08367900014854968,0.6162401000037789,True,near-rnd2,46,22,18,16.5,2,up,1,2
222,True,2.2647732000332326,800.0,33.0,50.0,0,0.1627837000414729,False,3,90,1.0,[21. 21.],5,0.08,0.08289770013652742,1.5018237999174744,True,near-rnd2,47,23,19,17.25,2,up,1,2
223,True,1.2224771999754012,800.0,50.0,33.0,0,0.1627837000414729,False,2,90,1.0,[21. 21.],30,0.48,0.485352799994871,0.5979599999263883,True,near-000,48,2,2,1.5,1,up,4,0
224,True,1.2453173000831157,800.0,800.0,50.0,0,0.1627837000414729,False,0,90,1.0,[21. 21.],9,0.14400000000000002,0.14877259987406433,0.7375870998948812,True,near-rndm,44,1,1,0.75,2,down,1,2
225,True,1.4822306998539716,800.0,800.0,50.0,0,0.1627837000414729,False,0,90,1.0,[21. 21.],5,0.08,0.08302210015244782,0.5704975000116974,True,near-rnd2,48,24,20,18.0,2,up,1,2
226,True,1.1300659000407904,800.0,50.0,33.0,0,0.1627837000414729,False,2,0,1.0,[21. 21.],30,0.48,0.48571919999085367,0.6656287000514567,False,near-000,49,3,2,2.25,1,up,4,0
227,True,0.9426408000290394,800.0,100.0,50.0,0,0.1627837000414729,False,1,90,1.0,[21. 21.],8,0.128,0.1356386998668313,0.5366378999315202,True,near-rndm,45,1,1,0.75,2,down,1,2
228,True,2.589885599911213,800.0,50.0,33.0,0,0.1627837000414729,False,2,0,1.0,[21. 21.],30,0.48,0.4858566001057625,0.3878768999129534,False,near-000,50,4,2,3.0,1,up,4,0
229,False,1.1533740998711437,800.0,100.0,50.0,0,0.1627837000414729,False,1,0,1.0,[21. 21.],7,0.112,0.11796529986895621,0.8458577999845147,True,near-rndm,46,1,1,0.75,2,down,1,3
230,True,1.186894599813968,800.0,33.0,50.0,0,0.1627837000414729,False,3,90,1.0,[21. 21.],5,0.08,0.08097100001759827,0.8028454000595957,True,near-rnd2,49,25,21,18.75,2,up,1,3
231,True,1.2379839001223445,800.0,100.0,50.0,0,0.1627837000414729,False,1,0,1.0,[21. 21.],7,0.112,0.1189822000451386,0.5704539001453668,True,near-rndm,46,1,1,0.75,2,down,1,3
232,True,1.4295634999871254,800.0,50.0,33.0,0,0.1627837000414729,False,2,90,1.0,[21. 21.],30,0.48,0.4863034998998046,0.5680974000133574,True,near-000,51,5,3,3.75,1,up,4,0
233,True,1.890144499950111,800.0,33.0,50.0,0,0.1627837000414729,False,3,90,1.0,[21. 21.],6,0.096,0.09872480016201735,0.7856799000874162,True,near-rndm,47,1,1,0.75,2,down,1,3
234,True,2.0945711000822484,800.0,50.0,33.0,0,0.1627837000414729,False,2,0,1.0,[21. 21.],30,0.48,0.48516950011253357,0.48837939999066293,True,near-000,52,6,4,4.5,1,up,4,0
235,True,1.5952210000250489,800.0,100.0,50.0,0,0.1627837000414729,False,1,0,1.0,[21. 21.],4,0.064,0.07190100010484457,0.5663499999791384,True,near-rnd2,50,1,1,0.75,2,down,1,0
236,True,1.7428025999106467,800.0,100.0,50.0,0,0.1627837000414729,False,1,0,1.0,[21. 21.],3,0.048,0.05544709996320307,0.6596870000939816,True,near-rnd2,51,1,1,0.75,2,down,1,0
237,True,1.5934385999571532,800.0,50.0,33.0,0,0.1627837000414729,False,2,90,1.0,[21. 21.],30,0.48,0.48712039995007217,0.4532912001013756,True,near-000,53,7,5,5.25,1,up,4,0
238,True,1.1341997999697924,800.0,100.0,50.0,0,0.1627837000414729,False,1,90,1.0,[21. 21.],2,0.032,0.03912739991210401,0.7465527998283505,True,near-rnd2,52,1,1,0.75,2,down,1,0
239,True,1.4623410999774933,800.0,50.0,33.0,0,0.1627837000414729,False,2,90,1.0,[21. 21.],30,0.48,0.4866571999154985,0.6350040000397712,True,near-000,54,8,6,6.0,1,up,4,0
240,True,1.1833891000133008,800.0,50.0,33.0,0,0.1627837000414729,False,2,0,1.0,[21. 21.],30,0.48,0.4867755000013858,0.4895337999332696,True,near-000,55,9,7,6.75,1,up,4,1
241,True,2.5470219999551773,800.0,33.0,50.0,0,0.1627837000414729,False,3,90,1.0,[21. 21.],1,0.016,0.018934299936518073,1.2130602998659015,False,near-rnd2,53,1,0,0.75,2,down,1,0
242,True,1.3505770000629127,800.0,33.0,50.0,0,0.1627837000414729,False,3,90,1.0,[21. 21.],1,0.016,0.017401799792423844,1.136249199975282,False,near-rnd2,54,2,0,1.5,2,down,1,0
243,True,1.3904921000357717,800.0,50.0,33.0,0,0.1627837000414729,False,2,90,1.0,[21. 21.],30,0.48,0.485726400045678,0.5206385999917984,True,near-000,56,10,8,7.5,1,up,4,1
244,True,1.1172472001053393,800.0,50.0,33.0,0,0.1627837000414729,False,2,0,1.0,[21. 21.],30,0.48,0.485075700096786,0.517932599876076,True,near-000,57,11,9,8.25,1,up,4,1
245,True,1.5373010002076626,800.0,33.0,50.0,0,0.1627837000414729,False,3,0,1.0,[21. 21.],1,0.016,0.017707299906760454,0.9735227997880429,False,near-rnd2,55,3,0,2.25,2,down,1,0
246,True,2.421896900050342,800.0,100.0,50.0,0,0.1627837000414729,False,1,0,1.0,[21. 21.],2,0.032,0.03658569999970496,0.9274669999722391,True,near-rnd2,56,1,1,0.75,2,up,1,0
247,True,1.106166899902746,800.0,50.0,33.0,0,0.1627837000414729,False,2,90,1.0,[21. 21.],30,0.48,0.48406160017475486,0.3750294998753816,True,near-000,58,12,10,9.0,1,up,4,1
248,True,1.4063125001266599,800.0,100.0,50.0,0,0.1627837000414729,False,1,90,1.0,[21. 21.],5,0.08,0.08740730001591146,0.6324055001605302,True,near-rndm,48,1,1,0.75,2,down,1,3
249,True,1.429742299951613,800.0,800.0,50.0,0,0.1627837000414729,False,0,0,1.0,[21. 21.],2,0.032,0.03666560002602637,0.670872800052166,True,near-rnd2,57,2,2,1.5,2,up,1,0
250,True,2.0216057000216097,800.0,50.0,33.0,0,0.1627837000414729,False,2,0,1.0,[21. 21.],30,0.48,0.48550249985419214,0.775104200001806,False,near-000,59,13,10,9.75,1,up,4,1
251,True,1.2541310999076813,800.0,50.0,33.0,0,0.1627837000414729,False,2,0,1.0,[21. 21.],30,0.48,0.48526460002176464,0.5354464999400079,True,near-000,60,14,11,10.5,1,up,4,1
252,True,1.54156589997001,800.0,100.0,50.0,0,0.1627837000414729,False,1,0,1.0,[21. 21.],2,0.032,0.03719920013099909,0.6160730000119656,True,near-rnd2,58,3,3,2.25,2,up,1,0
253,True,1.3835970999207348,800.0,50.0,33.0,0,0.1627837000414729,False,2,0,1.0,[21. 21.],30,0.48,0.4839560999535024,0.4340929000172764,True,near-000,61,15,12,11.25,1,up,4,1
254,True,1.4438690999522805,800.0,100.0,50.0,0,0.1627837000414729,False,1,90,1.0,[21. 21.],2,0.032,0.03793860017322004,0.8376264998223633,False,near-rnd2,59,4,3,3.0,2,up,1,0
255,True,1.2165020999964327,800.0,100.0,50.0,0,0.1627837000414729,False,1,90,1.0,[21. 21.],2,0.032,0.06996649992652237,0.6356451001483947,True,near-rnd2,60,5,4,3.75,2,up,1,0
256,True,1.1030560999643058,800.0,50.0,33.0,0,0.1627837000414729,False,2,0,1.0,[21. 21.],30,0.48,0.48479990009218454,0.395230800146237,True,near-000,62,16,13,12.0,1,up,4,1
257,True,1.4636789998039603,800.0,50.0,33.0,0,0.1627837000414729,False,2,0,1.0,[21. 21.],30,0.48,0.4841564998496324,0.48226980003528297,True,near-000,63,17,14,12.75,1,up,4,2
258,True,1.3657047001179308,800.0,100.0,50.0,0,0.1627837000414729,False,1,0,1.0,[21. 21.],2,0.032,0.03829070017673075,0.8297486000228673,True,near-rnd2,61,6,5,4.5,2,up,1,0
259,True,3.0316702001728117,800.0,50.0,33.0,0,0.1627837000414729,False,2,90,1.0,[21. 21.],29,0.464,0.47135699982754886,0.6218213001266122,True,near-000,64,1,1,0.75,1,down,1,0
260,True,1.5887417001649737,800.0,33.0,50.0,0,0.1627837000414729,False,3,90,1.0,[21. 21.],2,0.032,0.03569220006465912,1.109374700114131,False,near-rnd2,62,7,5,5.25,2,up,1,0
261,True,3.261909799883142,800.0,100.0,50.0,0,0.1627837000414729,False,1,0,1.0,[21. 21.],2,0.032,0.036479500122368336,0.6790153000038117,True,near-rnd2,63,8,6,6.0,2,up,1,0
262,True,1.332733699819073,800.0,50.0,33.0,0,0.1627837000414729,False,2,0,1.0,[21. 21.],29,0.464,0.5093654999509454,0.36991040012799203,True,near-000,65,2,2,1.5,2,down,1,0
263,False,1.2197288000024855,800.0,50.0,33.0,0,0.1627837000414729,False,2,0,1.0,[21. 21.],29,0.464,0.4682946999091655,0.434429399902001,True,near-000,66,3,3,2.25,2,down,1,0
264,True,1.4061120999976993,800.0,33.0,50.0,0,0.1627837000414729,False,3,0,1.0,[21. 21.],4,0.064,0.06610530009493232,0.7780754999257624,True,near-rndm,49,1,1,0.75,2,down,1,3
265,True,2.1281660001259297,800.0,100.0,50.0,0,0.1627837000414729,False,1,0,1.0,[21. 21.],2,0.032,0.03716449998319149,0.7342026000842452,True,near-rnd2,64,9,7,6.75,2,up,1,1
266,True,1.1811667999718338,800.0,33.0,50.0,0,0.1627837000414729,False,3,0,1.0,[21. 21.],3,0.048,0.05175690003670752,0.8243197998963296,False,near-rndm,50,1,0,0.75,2,down,1,3
267,True,1.3130087000317872,800.0,800.0,50.0,0,0.1627837000414729,False,0,0,1.0,[21. 21.],2,0.032,0.03562430012971163,0.6233870999421924,True,near-rnd2,65,10,8,7.5,2,up,1,1
268,True,1.0161989000625908,800.0,50.0,33.0,0,0.1627837000414729,False,2,90,1.0,[21. 21.],29,0.464,0.4695276999846101,0.4857036001048982,True,near-000,66,3,3,2.25,2,down,1,0
269,True,1.9016958000138402,800.0,50.0,33.0,0,0.1627837000414729,False,2,0,1.0,[21. 21.],29,0.464,0.4720060999970883,0.4132186998613179,True,near-000,67,4,4,3.0,2,down,1,0
270,True,1.4906341000460088,800.0,800.0,50.0,0,0.1627837000414729,False,0,90,1.0,[21. 21.],2,0.032,0.03527290001511574,0.6138406000100076,True,near-rnd2,66,11,9,8.25,2,up,1,1
271,True,1.6780872999224812,800.0,33.0,50.0,0,0.1627837000414729,False,3,90,1.0,[21. 21.],3,0.048,0.05081889987923205,1.1451136998366565,False,near-rndm,51,2,0,1.5,2,down,1,3
272,True,1.26525290007703,800.0,33.0,50.0,0,0.1627837000414729,False,3,90,1.0,[21. 21.],2,0.032,0.03400440001860261,0.9501382999587804,True,near-rnd2,67,12,10,9.0,2,up,1,1
273,True,1.3518512998707592,800.0,50.0,33.0,0,0.1627837000414729,False,2,90,1.0,[21. 21.],29,0.464,0.46987439994700253,0.5358213998842984,True,near-000,68,5,5,3.75,2,down,1,0
274,True,1.5076576999854296,800.0,33.0,50.0,0,0.1627837000414729,False,3,0,1.0,[21. 21.],3,0.048,0.050103200133889914,1.0637656999751925,False,near-rndm,52,3,0,2.25,2,down,1,3
275,True,1.4580047999043018,800.0,50.0,33.0,0,0.1627837000414729,False,2,90,1.0,[21. 21.],29,0.464,0.4708331997971982,0.5052094000857323,True,near-000,69,6,6,4.5,2,down,1,0
276,True,1.223807099973783,800.0,33.0,50.0,0,0.1627837000414729,False,3,90,1.0,[21. 21.],4,0.064,0.06677679996937513,0.8464752999134362,True,near-rndm,53,1,1,0.75,2,up,1,0
277,True,1.154104399960488,800.0,33.0,50.0,0,0.1627837000414729,False,3,90,1.0,[21. 21.],2,0.032,0.034227400086820126,0.805917700054124,True,near-rnd2,68,13,11,9.75,2,up,1,1
278,True,1.4120519999414682,800.0,100.0,50.0,0,0.1627837000414729,False,1,0,1.0,[21. 21.],4,0.064,0.0714652999304235,0.5336507000029087,True,near-rndm,54,2,2,1.5,2,up,1,0
279,True,1.2403099001385272,800.0,50.0,33.0,0,0.1627837000414729,False,2,0,1.0,[21. 21.],29,0.464,0.47091030003502965,0.3410726999863982,True,near-000,70,7,7,5.25,2,down,1,0
280,True,1.345834800042212,800.0,800.0,50.0,0,0.1627837000414729,False,0,0,1.0,[21. 21.],4,0.064,0.06814879993908107,0.7838687999173999,True,near-rndm,55,3,3,2.25,2,up,1,0
281,True,1.4810667999554425,800.0,50.0,33.0,0,0.1627837000414729,False,2,90,1.0,[21. 21.],29,0.464,0.471829199930653,0.5746778000611812,True,near-000,71,8,8,6.0,2,down,1,0
