trial,primeCorrect,primeTime,primeDepth,stimDepth,diopters,nearToFar,orientation,contrast,frequency,intensity,requestedLatency,actualLatency,responseTime,correct,caseLabel,caseTrial,trialsAtStep,stepCorrect,expected,w,direction,stepsize,stepChange
1,True,2.5008960999548435,33.0,800.0,100.0,0,23.760762699879706,True,3,90,1.0,[21. 21.],60,0.96,0.965694900136441,0.0775649999268353,True,far-rndm,1,1,1,0.75,0.5,start,16,0
2,True,1.9888651999644935,33.0,50.0,100.0,0,23.760762699879706,True,1,90,1.0,[21. 21.],60,0.96,0.9667386999353766,0.10890690004453063,False,far-rnd2,1,1,0,0.75,0.5,start,16,0
3,True,1.2342296000570059,33.0,100.0,800.0,0,23.760762699879706,True,2,0,1.0,[21. 21.],60,0.96,0.9676077000331134,0.1561298999004066,True,far-000,1,1,1,0.75,0.5,start,16,0
4,True,1.6756605000700802,33.0,100.0,800.0,10,0.16482649999670684,True,2,90,1.0,[21. 21.],60,0.96,0.9645136999897659,0.048186799976974726,True,far-160,1,1,1,0.75,0.5,start,16,0
5,True,2.2104660000186414,33.0,100.0,800.0,5,0.08498000004328787,True,2,90,1.0,[21. 21.],60,0.96,0.9688253998756409,0.21676960005424917,False,far-080,1,1,0,0.75,0.5,start,16,0
6,True,1.1736232999246567,33.0,50.0,100.0,0,0.08498000004328787,True,1,90,1.0,[21. 21.],60,0.96,0.9671283999923617,0.12387880007736385,False,far-rndm,2,2,1,1.5,0.5,start,16,0
7,True,1.7122977999970317,33.0,100.0,800.0,5,0.0855744001455605,True,2,0,1.0,[21. 21.],76,1.216,1.220835000043735,0.4332012999802828,True,far-080,2,1,1,0.75,0.5,up,8,0
8,True,1.8067078001331538,33.0,100.0,800.0,10,0.1649331001099199,True,2,90,1.0,[21. 21.],60,0.96,0.967024700017646,0.26887509995140135,True,far-160,2,2,2,1.5,0.5,start,16,0
9,True,1.6235013999976218,33.0,50.0,100.0,0,0.1649331001099199,True,1,0,1.0,[21. 21.],76,1.216,1.220222800038755,0.06485720002092421,False,far-rnd2,2,1,0,0.75,0.5,up,8,0
10,True,1.7012296000029892,33.0,100.0,800.0,0,0.1649331001099199,True,2,90,1.0,[21. 21.],60,0.96,0.9680465999990702,0.11383230006322265,True,far-000,2,2,2,1.5,0.5,start,16,0
11,True,1.5358372000046074,33.0,100.0,800.0,5,0.08459580014459789,True,2,0,1.0,[21. 21.],76,1.216,1.2220163000747561,0.09630150021985173,False,far-080,3,2,1,1.5,1,up,8,0
12,True,2.3612585000228137,33.0,100.0,800.0,10,0.16539789992384613,True,2,90,1.0,[21. 21.],60,0.96,0.967460700077936,0.12249039998278022,False,far-160,3,3,2,2.25,0.5,start,16,0
13,True,1.8640895998105407,33.0,800.0,100.0,0,0.16539789992384613,True,3,90,1.0,[21. 21.],76,1.216,1.221534499898553,0.08757909992709756,False,far-rnd2,3,2,0,1.5,1,up,8,0
14,True,1.9185140999034047,33.0,100.0,800.0,0,0.16539789992384613,True,2,90,1.0,[21. 21.],60,0.96,0.9678390000481158,0.15424560010433197,False,far-000,3,3,2,2.25,0.5,start,16,0
15,True,1.427225099876523,33.0,33.0,100.0,0,0.16539789992384613,False,0,0,1.0,[21. 21.],60,0.96,0.9636290001217276,0.24168900004588068,True,far-rndm,3,3,2,2.25,0.5,start,16,0
16,True,1.8428420999553055,33.0,33.0,100.0,0,0.16539789992384613,False,0,90,1.0,[21. 21.],80,1.28,1.2827031000051647,0.455652300035581,True,far-rnd2,4,1,1,0.75,1,up,8,0
17,True,0.9945427000056952,33.0,100.0,800.0,5,0.08526899991557002,True,2,0,1.0,[21. 21.],76,1.216,1.2241110999602824,0.20684039988555014,True,far-080,4,3,2,2.25,1,up,8,0
18,True,1.3839686999563128,33.0,100.0,800.0,0,0.08526899991557002,True,2,90,1.0,[21. 21.],60,0.96,0.9657260000240058,0.30540350009687245,True,far-000,4,4,3,3.0,0.5,start,16,0
19,True,1.8671717999968678,33.0,800.0,100.0,0,0.08526899991557002,True,3,0,1.0,[21. 21.],60,0.96,0.9633029999677092,0.15320790000259876,True,far-rndm,4,4,3,3.0,0.5,start,16,0
20,True,3.2333740999456495,33.0,100.0,800.0,10,0.16475690016523004,True,2,0,1.0,[21. 21.],60,0.96,0.9672690001316369,0.3057492000516504,True,far-160,4,4,3,3.0,0.5,start,16,0
21,True,1.5354471998289227,33.0,100.0,800.0,10,0.16545279999263585,True,2,0,1.0,[21. 21.],60,0.96,0.9687243001535535,0.15798220015130937,True,far-160,5,5,4,3.75,0.5,start,16,0
22,True,1.5237101998645812,33.0,100.0,800.0,5,0.08365279994904995,True,2,90,1.0,[21. 21.],76,1.216,1.224097599973902,0.10990800010040402,False,far-080,5,4,2,3.0,1,up,8,0
23,True,1.8856836000923067,33.0,50.0,100.0,0,0.08365279994904995,True,1,0,1.0,[21. 21.],60,0.96,0.9646291001699865,0.25261930003762245,True,far-rndm,5,5,4,3.75,0.5,start,16,0
24,True,1.7730562000069767,33.0,50.0,100.0,0,0.08365279994904995,True,1,90,1.0,[21. 21.],80,1.28,1.2882854000199586,0.12417369987815619,False,far-rnd2,5,2,1,1.5,1,up,8,0
25,True,1.4556504001375288,33.0,100.0,800.0,0,0.08365279994904995,True,2,90,1.0,[21. 21.],60,0.96,0.9649339998140931,0.2946190999355167,True,far-000,5,5,4,3.75,0.5,start,16,0
26,True,1.4533418000210077,33.0,100.0,800.0,10,0.16559719992801547,True,2,0,1.0,[21. 21.],60,0.96,0.9682409998495132,0.19904350000433624,True,far-160,6,6,5,4.5,0.5,start,16,0
27,True,1.5535939000546932,33.0,100.0,800.0,5,0.08452889998443425,True,2,0,1.0,[21. 21.],76,1.216,1.222358699887991,0.02738559991121292,True,far-080,6,5,3,3.75,1,up,8,0
28,True,1.8658739000093192,33.0,33.0,100.0,0,0.08452889998443425,False,0,0,1.0,[21. 21.],60,0.96,0.9631525001022965,0.26030480000190437,True,far-rndm,6,6,5,4.5,0.5,start,16,0
29,True,1.148824900155887,33.0,50.0,100.0,0,0.08452889998443425,True,1,0,1.0,[21. 21.],80,1.28,1.2859601001255214,0.007785899797454476,True,far-rnd2,6,3,2,2.25,1,up,8,0
30,True,1.3420607999432832,33.0,100.0,800.0,0,0.08452889998443425,True,2,0,1.0,[21. 21.],60,0.96,0.9655812000855803,0.27823589998297393,True,far-000,6,6,5,4.5,0.5,start,16,0
31,True,1.9471714000683278,33.0,50.0,100.0,0,0.08452889998443425,True,1,0,1.0,[21. 21.],80,1.28,1.2857849998399615,0.1163361999206245,True,far-rnd2,7,4,3,3.0,1,up,8,0
32,True,1.7589190998114645,33.0,100.0,800.0,0,0.08452889998443425,True,2,90,1.0,[21. 21.],60,0.96,0.9671613997779787,0.29109250009059906,True,far-000,7,7,6,5.25,0.5,start,16,0
33,True,1.584048899821937,33.0,100.0,800.0,10,0.16743169981054962,True,2,90,1.0,[21. 21.],60,0.96,0.9680238999426365,0.305368899833411,True,far-160,7,7,6,5.25,0.5,start,16,0
34,True,1.3872507000342011,33.0,100.0,800.0,5,0.08625249983742833,True,2,90,1.0,[21. 21.],76,1.216,1.22541099996306,0.03271800000220537,True,far-080,7,6,4,4.5,1,up,8,0
35,True,1.6922959999646991,33.0,33.0,100.0,0,0.08625249983742833,False,0,90,1.0,[21. 21.],60,0.96,0.9631230998784304,0.09765690006315708,True,far-rndm,7,7,6,5.25,0.5,start,16,0
36,True,1.115754900034517,33.0,100.0,800.0,10,0.1674663000740111,True,2,0,1.0,[21. 21.],44,0.704,0.7106361000332981,0.319194900104776,True,far-160,8,1,1,0.75,0.5,down,8,0
37,True,1.600627199979499,33.0,100.0,800.0,0,0.1674663000740111,True,2,0,1.0,[21. 21.],44,0.704,0.7145695998333395,0.3773667998611927,True,far-000,8,1,1,0.75,0.5,down,8,0
38,True,1.4373570999596268,33.0,33.0,100.0,0,0.1674663000740111,False,0,90,1.0,[21. 21.],80,1.28,1.2830536998808384,0.14127149991691113,False,far-rnd2,8,5,3,3.75,1,up,8,0
39,True,1.4949264999013394,33.0,100.0,800.0,5,0.08445429988205433,True,2,0,1.0,[21. 21.],76,1.216,1.2227859001141042,0.11145500000566244,False,far-080,8,7,4,5.25,1,up,8,0
40,True,2.5391256001312286,33.0,33.0,100.0,0,0.08445429988205433,False,0,0,1.0,[21. 21.],44,0.704,0.7077401999849826,0.22423160006292164,True,far-rndm,8,1,1,0.75,0.5,down,8,0
41,True,1.006485000019893,33.0,800.0,100.0,0,0.08445429988205433,True,3,0,1.0,[21. 21.],44,0.704,0.7092611000407487,0.44651370006613433,True,far-rndm,9,2,2,1.5,1,down,8,0
42,True,1.4933328998740762,33.0,100.0,800.0,5,0.08629910019226372,True,2,90,1.0,[21. 21.],80,1.28,1.2884782999753952,0.44891380006447434,True,far-080,9,1,1,0.75,1,up,8,0
43,True,1.599097599973902,33.0,33.0,100.0,0,0.08629910019226372,False,0,0,1.0,[21. 21.],80,1.28,1.2840495998971164,0.07295880001038313,True,far-rnd2,9,6,4,4.5,1,up,8,0
44,True,2.331992299994454,33.0,100.0,800.0,10,0.16724370000883937,True,2,0,1.0,[21. 21.],44,0.704,0.7100871000438929,0.38583509996533394,True,far-160,9,2,2,1.5,1,down,8,0
45,True,1.7568318000994623,33.0,100.0,800.0,0,0.16724370000883937,True,2,0,1.0,[21. 21.],44,0.704,0.7158619000110775,0.39239689987152815,True,far-000,9,2,2,1.5,1,down,8,0
46,True,2.612118000164628,33.0,33.0,100.0,0,0.16724370000883937,False,0,90,1.0,[21. 21.],44,0.704,0.706943100085482,0.2282080000732094,True,far-rndm,10,3,3,2.25,1,down,8,0
47,True,1.3576664000283927,33.0,100.0,800.0,5,0.08578550000675023,True,2,90,1.0,[21. 21.],80,1.28,1.2884553999174386,0.1640622999984771,True,far-080,10,2,2,1.5,1,up,8,0
48,True,1.5635315000545233,33.0,800.0,100.0,0,0.08578550000675023,True,3,0,1.0,[21. 21.],80,1.28,1.2883905000053346,0.09797780006192625,False,far-rnd2,10,7,4,5.25,1,up,8,0
49,True,1.5898757998365909,33.0,100.0,800.0,0,0.08578550000675023,True,2,90,1.0,[21. 21.],44,0.704,0.7132693000603467,0.43174829985946417,True,far-000,10,3,3,2.25,1,down,8,0
50,True,1.3868839999195188,33.0,100.0,800.0,10,0.16716609988361597,True,2,0,1.0,[21. 21.],44,0.704,0.7124701000284404,0.320039999904111,True,far-160,10,3,3,2.25,1,down,8,0
51,True,1.1152152998838574,33.0,100.0,800.0,0,0.16716609988361597,True,2,90,1.0,[21. 21.],44,0.704,0.7111487998627126,0.3481095000170171,True,far-000,11,4,4,3.0,1,down,8,0
52,True,1.5492304000072181,33.0,800.0,100.0,0,0.16716609988361597,True,3,0,1.0,[21. 21.],80,1.28,1.2883549998514354,0.2817551998887211,True,far-rnd2,11,1,1,0.75,1,up,8,0
53,True,1.4314109000843018,33.0,50.0,100.0,0,0.16716609988361597,True,1,0,1.0,[21. 21.],44,0.704,0.7101675001904368,0.2848779000341892,True,far-rndm,11,4,4,3.0,1,down,8,0
54,True,1.168743200134486,33.0,100.0,800.0,5,0.08681289991363883,True,2,90,1.0,[21. 21.],80,1.28,1.2882693000137806,0.5255981998052448,True,far-080,11,3,3,2.25,1,up,8,0
55,True,1.5765574001707137,33.0,100.0,800.0,10,0.20000489987432957,True,2,0,1.0,[21. 21.],44,0.704,0.7128197001293302,0.28446039999835193,True,far-160,11,4,4,3.0,1,down,8,0
56,True,1.7558603000361472,33.0,50.0,100.0,0,0.20000489987432957,True,1,90,1.0,[21. 21.],80,1.28,1.2882140998262912,0.2930413999129087,True,far-rnd2,12,2,2,1.5,1,up,8,0
57,True,1.751322700176388,33.0,100.0,800.0,5,0.0855608000420034,True,2,90,1.0,[21. 21.],80,1.28,1.2907044000457972,0.2544300998561084,True,far-080,12,4,4,3.0,1,up,8,0
58,True,2.406389999901876,33.0,100.0,800.0,10,0.1641671999823302,True,2,90,1.0,[21. 21.],44,0.704,0.7147261998616159,0.30020829988643527,True,far-160,12,5,5,3.75,1,down,8,0
59,True,1.7218446999322623,33.0,100.0,800.0,0,0.1641671999823302,True,2,0,1.0,[21. 21.],44,0.704,0.7108358999248594,0.35136400000192225,True,far-000,12,5,5,3.75,1,down,8,0
60,True,1.4892867000307888,33.0,50.0,100.0,0,0.1641671999823302,True,1,90,1.0,[21. 21.],44,0.704,0.7129362998530269,0.3321843999437988,True,far-rndm,12,5,5,3.75,1,down,8,0
61,True,1.3001383000519127,33.0,100.0,800.0,0,0.1641671999823302,True,2,0,1.0,[21. 21.],36,0.5760000000000001,0.5850853999145329,0.43334960006177425,True,far-000,13,1,1,0.75,1,down,8,0
62,True,1.5229913999792188,33.0,100.0,800.0,5,0.08731830003671348,True,2,90,1.0,[21. 21.],80,1.28,1.291276799980551,0.22079050005413592,True,far-080,13,5,5,3.75,1,up,8,0
63,True,1.6272893999703228,33.0,100.0,800.0,10,0.1663188999518752,True,2,0,1.0,[21. 21.],36,0.5760000000000001,0.5844382999930531,0.3861756999976933,True,far-160,13,1,1,0.75,1,down,8,0
64,True,1.6568485000170767,33.0,800.0,100.0,0,0.1663188999518752,True,3,90,1.0,[21. 21.],80,1.28,1.2869057999923825,0.16983980010263622,True,far-rnd2,13,3,3,2.25,1,up,8,0
65,True,1.6512871999293566,33.0,33.0,100.0,0,0.1663188999518752,False,0,0,1.0,[21. 21.],36,0.5760000000000001,0.5785598000511527,0.28890909999608994,True,far-rndm,13,1,1,0.75,1,down,8,0
66,True,1.1429175999946892,33.0,33.0,100.0,0,0.1663188999518752,False,0,0,1.0,[21. 21.],36,0.5760000000000001,0.5780847000423819,0.3518530000001192,True,far-rndm,14,2,2,1.5,1,down,8,0
67,True,3.5840370000805706,33.0,100.0,800.0,0,0.1663188999518752,True,2,0,1.0,[21. 21.],36,0.5760000000000001,0.5817190001253039,0.5841545001603663,True,far-000,14,2,2,1.5,1,down,8,0
68,True,1.5411850998643786,33.0,100.0,800.0,5,0.08548830007202923,True,2,0,1.0,[21. 21.],72,1.1520000000000001,1.1610032999888062,0.27686259988695383,True,far-080,14,1,1,0.75,1,down,4,0
69,True,1.348356100032106,33.0,33.0,100.0,0,0.08548830007202923,False,0,0,1.0,[21. 21.],80,1.28,1.2825754000805318,0.12990379985421896,True,far-rnd2,14,4,4,3.0,1,up,8,0
70,True,1.1590351997874677,33.0,100.0,800.0,10,0.16359140002168715,True,2,90,1.0,[21. 21.],36,0.5760000000000001,0.5856073000468314,0.3865569999907166,True,far-160,14,2,2,1.5,1,down,8,0
71,True,1.641301899915561,33.0,100.0,800.0,10,0.16756139998324215,True,2,90,1.0,[21. 21.],36,0.5760000000000001,0.585621900158003,0.396402700105682,True,far-160,15,3,3,2.25,1,down,8,0
72,True,1.4783102998044342,33.0,100.0,800.0,5,0.08760059997439384,True,2,90,1.0,[21. 21.],72,1.1520000000000001,1.1600836999714375,0.1341423001140356,True,far-080,15,2,2,1.5,1,down,4,0
73,True,1.2704105998855084,33.0,33.0,100.0,0,0.08760059997439384,False,0,90,1.0,[21. 21.],80,1.28,1.2822263999842107,0.016977000050246716,True,far-rnd2,15,5,5,3.75,1,up,8,0
74,True,0.8308761999942362,33.0,800.0,100.0,0,0.08760059997439384,True,3,90,1.0,[21. 21.],36,0.5760000000000001,0.5811286000534892,0.5267364999745041,True,far-rndm,15,3,3,2.25,1,down,8,0
75,True,1.257733000209555,33.0,100.0,800.0,0,0.08760059997439384,True,2,0,1.0,[21. 21.],36,0.5760000000000001,0.5811544999014586,0.4028882998973131,True,far-000,15,3,3,2.25,1,down,8,0
76,True,2.3936713999137282,33.0,100.0,800.0,0,0.08760059997439384,True,2,90,1.0,[21. 21.],36,0.5760000000000001,0.5826789999846369,0.4250749000348151,True,far-000,16,4,4,3.0,1,down,8,0
77,True,1.2040546000935137,33.0,33.0,100.0,0,0.08760059997439384,False,0,90,1.0,[21. 21.],72,1.1520000000000001,1.1554602000396699,0.09689630009233952,True,far-rnd2,16,1,1,0.75,1,down,4,0
78,True,1.847097699996084,33.0,100.0,800.0,10,0.16437479993328452,True,2,90,1.0,[21. 21.],36,0.5760000000000001,0.5835108999162912,0.33999840007163584,True,far-160,16,4,4,3.0,1,down,8,0
79,True,1.587294999975711,33.0,100.0,800.0,5,0.08579199993982911,True,2,90,1.0,[21. 21.],72,1.1520000000000001,1.1981848999857903,0.3041930999606848,True,far-080,16,3,3,2.25,1,down,4,0
80,True,1.517035299912095,33.0,33.0,100.0,0,0.08579199993982911,False,0,90,1.0,[21. 21.],36,0.5760000000000001,0.5790340998210013,0.31608829996548593,True,far-rndm,16,4,4,3.0,1,down,8,0
81,True,0.9781049001030624,33.0,100.0,800.0,10,0.16794950002804399,True,2,90,1.0,[21. 21.],36,0.5760000000000001,0.581561499973759,0.36262979987077415,True,far-160,17,5,5,3.75,1,down,8,0
82,True,1.1233651998918504,33.0,800.0,100.0,0,0.16794950002804399,True,3,90,1.0,[21. 21.],72,1.1520000000000001,1.1570964001584798,0.01561439991928637,True,far-rnd2,17,2,2,1.5,1,down,4,0
83,True,2.6645138999447227,33.0,50.0,100.0,0,0.16794950002804399,True,1,90,1.0,[21. 21.],36,0.5760000000000001,0.5847593999933451,0.2810802001040429,True,far-rndm,17,5,5,3.75,1,down,8,0
84,True,1.343691699905321,33.0,100.0,800.0,0,0.16794950002804399,True,2,90,1.0,[21. 21.],36,0.5760000000000001,0.583640200085938,0.3049070001579821,True,far-000,17,5,5,3.75,1,down,8,0
85,True,1.5261379999574274,33.0,100.0,800.0,5,0.08594249980524182,True,2,0,1.0,[21. 21.],72,1.1520000000000001,1.1578365999739617,0.6726790999528021,True,far-080,17,4,4,3.0,1,down,4,0
86,True,1.679912299849093,33.0,100.0,800.0,5,0.0866455000359565,True,2,0,1.0,[21. 21.],72,1.1520000000000001,1.1607824000529945,0.20313300006091595,True,far-080,18,5,5,3.75,1,down,4,0
87,True,1.9863118000794202,33.0,100.0,800.0,10,0.166884999955073,True,2,90,1.0,[21. 21.],28,0.448,0.45284090004861355,0.459854899905622,True,far-160,18,1,1,0.75,1,down,8,0
88,True,1.7631777999922633,33.0,33.0,100.0,0,0.166884999955073,False,0,90,1.0,[21. 21.],28,0.448,0.44983810000121593,0.3322663998696953,True,far-rndm,18,1,1,0.75,1,down,8,0
89,True,1.155472599901259,33.0,100.0,800.0,0,0.166884999955073,True,2,90,1.0,[21. 21.],28,0.448,0.45802000002004206,0.38323520007543266,True,far-000,18,1,1,0.75,1,down,8,0
90,True,1.2454939000308514,33.0,33.0,100.0,0,0.166884999955073,False,0,0,1.0,[21. 21.],72,1.1520000000000001,1.1545257999096066,0.12025459995493293,False,far-rnd2,18,3,2,2.25,1,down,4,0
91,True,0.8530159001238644,33.0,100.0,800.0,0,0.166884999955073,True,2,90,1.0,[21. 21.],28,0.448,0.457561899907887,0.45973780006170273,True,far-000,19,2,2,1.5,1,down,8,0
92,True,1.4642290000338107,33.0,800.0,100.0,0,0.166884999955073,True,3,90,1.0,[21. 21.],28,0.448,0.45200200006365776,0.5886185998097062,True,far-rndm,19,2,2,1.5,1,down,8,0
93,True,2.6122365000192076,33.0,33.0,100.0,0,0.166884999955073,False,0,0,1.0,[21. 21.],72,1.1520000000000001,1.1539031998254359,0.09108260017819703,False,far-rnd2,19,4,2,3.0,1,down,4,0
94,True,1.5741828999016434,33.0,100.0,800.0,10,0.168759600026533,True,2,0,1.0,[21. 21.],28,0.448,0.45297649991698563,0.3815369000658393,True,far-160,19,2,2,1.5,1,down,8,0
95,True,1.9988784999586642,33.0,100.0,800.0,5,0.08758970000781119,True,2,90,1.0,[21. 21.],68,1.088,1.0955384999979287,0.17918870016001165,False,far-080,19,1,0,0.75,1,down,4,0
96,True,1.3560312998015434,33.0,33.0,100.0,0,0.08758970000781119,False,0,0,1.0,[21. 21.],72,1.1520000000000001,1.1541947000660002,0.3025185000151396,True,far-rnd2,20,5,3,3.75,1,down,4,0
97,True,1.0226928999181837,33.0,100.0,800.0,0,0.08758970000781119,True,2,90,1.0,[21. 21.],28,0.448,0.45803580014035106,0.4429502999410033,True,far-000,20,3,3,2.25,1,down,8,0
98,True,1.354762300150469,33.0,100.0,800.0,10,0.16532299993559718,True,2,0,1.0,[21. 21.],28,0.448,0.45773739996366203,0.3761531999334693,True,far-160,20,3,3,2.25,1,down,8,0
99,True,1.921895599924028,33.0,800.0,100.0,0,0.16532299993559718,True,3,0,1.0,[21. 21.],28,0.448,0.4553843999747187,1.09877820010297,True,far-rndm,20,3,3,2.25,1,down,8,0
100,True,1.4618138999212533,33.0,100.0,800.0,5,0.08588609984144568,True,2,0,1.0,[21. 21.],68,1.088,1.094887200044468,0.6565739999059588,True,far-080,20,2,1,1.5,1,down,4,0
101,True,1.3779424999374896,33.0,100.0,800.0,5,0.08440459985285997,True,2,0,1.0,[21. 21.],68,1.088,1.094267100095749,0.08868089993484318,True,far-080,21,3,2,2.25,1,down,4,0
102,True,1.332596099935472,33.0,100.0,800.0,0,0.08440459985285997,True,2,0,1.0,[21. 21.],28,0.448,0.45626570004969835,0.4229015000164509,True,far-000,21,4,4,3.0,1,down,8,0
103,True,1.1410660999827087,33.0,50.0,100.0,0,0.08440459985285997,True,1,0,1.0,[21. 21.],72,1.1520000000000001,1.1580207000952214,0.15806410019285977,True,far-rnd2,21,6,4,4.5,1,down,4,0
104,True,1.3625211000908166,33.0,100.0,800.0,10,0.16685809986665845,True,2,0,1.0,[21. 21.],28,0.448,0.4585196999832988,0.3991002000402659,True,far-160,21,4,4,3.0,1,down,8,0
105,True,1.4944313999731094,33.0,50.0,100.0,0,0.16685809986665845,True,1,0,1.0,[21. 21.],28,0.448,0.4528677000198513,0.43605050002224743,True,far-rndm,21,4,4,3.0,1,down,8,0
106,True,1.1988427001051605,33.0,100.0,800.0,10,0.16705600009299815,True,2,90,1.0,[21. 21.],28,0.448,0.453826499870047,0.3570175999775529,True,far-160,22,5,5,3.75,1,down,8,0
107,True,1.832458300050348,33.0,50.0,100.0,0,0.16705600009299815,True,1,0,1.0,[21. 21.],72,1.1520000000000001,1.1577277998439968,0.23974770004861057,True,far-rnd2,22,7,5,5.25,1,down,4,0
108,True,1.4520497000776231,33.0,50.0,100.0,0,0.16705600009299815,True,1,90,1.0,[21. 21.],28,0.448,0.4545233000535518,0.328006099909544,True,far-rndm,22,5,5,3.75,1,down,8,0
109,True,1.5533574998844415,33.0,100.0,800.0,0,0.16705600009299815,True,2,0,1.0,[21. 21.],28,0.448,0.458220100030303,0.4478611999657005,True,far-000,22,5,5,3.75,1,down,8,0
110,True,1.273948400048539,33.0,100.0,800.0,5,0.08853340009227395,True,2,90,1.0,[21. 21.],68,1.088,1.0944458998274058,0.2896867999807,True,far-080,22,4,3,3.0,1,down,4,0
111,True,2.0632247999310493,33.0,33.0,100.0,0,0.08853340009227395,False,0,0,1.0,[21. 21.],20,0.32,0.3226294000633061,0.39685410005040467,True,far-rndm,23,1,1,0.75,1,down,16,0
112,True,2.070308799855411,33.0,100.0,800.0,5,0.08849110011942685,True,2,90,1.0,[21. 21.],68,1.088,1.0949164000339806,0.08874629996716976,False,far-080,23,5,3,3.75,1,down,4,0
113,True,1.5412441999651492,33.0,50.0,100.0,0,0.08849110011942685,True,1,90,1.0,[21. 21.],72,1.1520000000000001,1.15712650003843,0.008644900051876903,True,far-rnd2,23,8,6,6.0,1,down,4,0
114,True,1.4900011999998242,33.0,100.0,800.0,0,0.08849110011942685,True,2,90,1.0,[21. 21.],20,0.32,0.32625779998488724,0.5586671999190003,True,far-000,23,1,1,0.75,1,down,16,0
115,True,1.3800013000145555,33.0,100.0,800.0,10,0.16456920001655817,True,2,0,1.0,[21. 21.],20,0.32,0.3276676000095904,0.4286098999436945,True,far-160,23,1,1,0.75,1,down,16,0
116,True,1.9667891999706626,33.0,50.0,100.0,0,0.16456920001655817,True,1,0,1.0,[21. 21.],20,0.32,0.32855019997805357,0.36840820009820163,True,far-rndm,24,2,2,1.5,0.5,down,16,0
117,True,1.4387341998517513,33.0,100.0,800.0,5,0.08612419990822673,True,2,0,1.0,[21. 21.],68,1.088,1.0947266998700798,0.12768699997104704,False,far-080,24,6,3,4.5,1,down,4,0
118,True,1.7914785000029951,33.0,100.0,800.0,10,0.16476029995828867,True,2,90,1.0,[21. 21.],20,0.32,0.3323875998612493,0.44368680007755756,True,far-160,24,2,2,1.5,0.5,down,16,0
119,True,1.6143326999153942,33.0,100.0,800.0,0,0.16476029995828867,True,2,0,1.0,[21. 21.],20,0.32,0.3264184999279678,0.4317272000480443,True,far-000,24,2,2,1.5,0.5,down,16,0
120,True,1.7863366999663413,33.0,800.0,100.0,0,0.16476029995828867,True,3,0,1.0,[21. 21.],72,1.1520000000000001,1.1573375998996198,0.01650700019672513,True,far-rnd2,24,9,7,6.75,1,down,4,1
121,True,1.3765152001287788,33.0,100.0,800.0,5,0.08518609986640513,True,2,0,1.0,[21. 21.],72,1.1520000000000001,1.1636288999579847,0.27695630001835525,True,far-080,25,1,1,0.75,1,up,2,0
122,True,1.985298999818042,33.0,100.0,800.0,10,0.16723220003768802,True,2,0,1.0,[21. 21.],20,0.32,0.3291458999738097,0.40030679991468787,True,far-160,25,3,3,2.25,0.5,down,16,0
123,True,1.2631772998720407,33.0,800.0,100.0,0,0.16723220003768802,True,3,0,1.0,[21. 21.],20,0.32,0.3271954001393169,0.6655506000388414,True,far-rndm,25,3,3,2.25,0.5,down,16,0
124,True,1.2063843000214547,33.0,100.0,800.0,0,0.16723220003768802,True,2,0,1.0,[21. 21.],20,0.32,0.329292300157249,0.5873978000599891,True,far-000,25,3,3,2.25,0.5,down,16,0
125,True,1.4815830001607537,33.0,50.0,100.0,0,0.16723220003768802,True,1,0,1.0,[21. 21.],72,1.1520000000000001,1.1581446998752654,0.2763859999831766,True,far-rnd2,25,10,8,7.5,1,down,4,1
126,True,1.9546185999643058,33.0,50.0,100.0,0,0.16723220003768802,True,1,90,1.0,[21. 21.],4,0.064,0.07089950004592538,0.6654407000169158,True,far-rndm,26,1,1,0.75,0.5,down,16,0
127,True,1.2989695998840034,33.0,100.0,800.0,10,0.1669296999461949,True,2,90,1.0,[21. 21.],4,0.064,0.06954320007935166,0.6764014000073075,True,far-160,26,1,1,0.75,0.5,down,16,0
128,True,1.506923499982804,33.0,100.0,800.0,0,0.1669296999461949,True,2,90,1.0,[21. 21.],4,0.064,0.06899890000931919,0.9055810000281781,True,far-000,26,1,1,0.75,0.5,down,16,0
129,True,1.7468185999896377,33.0,50.0,100.0,0,0.1669296999461949,True,1,90,1.0,[21. 21.],72,1.1520000000000001,1.1563662998378277,0.24489620001986623,True,far-rnd2,26,11,9,8.25,1,down,4,1
130,True,1.1768867999780923,33.0,100.0,800.0,5,0.0876982999034226,True,2,90,1.0,[21. 21.],72,1.1520000000000001,1.1607784000225365,0.3697674998547882,True,far-080,26,2,2,1.5,2,up,2,0
131,True,1.458875299897045,33.0,100.0,800.0,10,0.16444949992001057,True,2,0,1.0,[21. 21.],4,0.064,0.0705527001991868,0.6967080000322312,False,far-160,27,2,1,1.5,0.5,down,16,0
132,True,1.6759897000156343,33.0,100.0,800.0,0,0.16444949992001057,True,2,90,1.0,[21. 21.],4,0.064,0.07053879997693002,0.701050299918279,True,far-000,27,2,2,1.5,0.5,down,16,0
133,True,1.3911503001581877,33.0,50.0,100.0,0,0.16444949992001057,True,1,0,1.0,[21. 21.],72,1.1520000000000001,1.1605044999159873,0.4790351998526603,True,far-rnd2,27,12,10,9.0,1,down,4,1
134,True,1.770779199898243,33.0,100.0,800.0,5,0.08466860000044107,True,2,90,1.0,[21. 21.],72,1.1520000000000001,1.1578806000761688,0.28226320003159344,True,far-080,27,3,3,2.25,2,up,2,0
135,False,1.2409826999064535,33.0,50.0,100.0,0,0.08466860000044107,True,1,0,1.0,[21. 21.],4,0.064,0.07098220009356737,0.8981802000198513,False,far-rndm,27,2,1,1.5,0.5,down,16,0
136,True,1.5725960000418127,33.0,100.0,800.0,0,0.08466860000044107,True,2,0,1.0,[21. 21.],4,0.064,0.07095980015583336,0.6901388999540359,False,far-000,28,3,2,2.25,0.5,down,16,0
137,True,1.5285700999666005,33.0,100.0,800.0,5,0.08662789990194142,True,2,0,1.0,[21. 21.],72,1.1520000000000001,1.1582263000309467,0.3807920999825001,True,far-080,28,4,4,3.0,2,up,2,0
138,True,1.3239577000495046,33.0,50.0,100.0,0,0.08662789990194142,True,1,0,1.0,[21. 21.],72,1.1520000000000001,1.1586126000620425,0.29314480000175536,True,far-rnd2,28,13,11,9.75,1,down,4,1
139,True,1.4940390000119805,33.0,100.0,800.0,10,0.16442829999141395,True,2,90,1.0,[21. 21.],4,0.064,0.07068039989098907,0.7441926999017596,True,far-160,28,3,2,2.25,0.5,down,16,0
140,True,1.6313253999687731,33.0,33.0,100.0,0,0.16442829999141395,False,0,90,1.0,[21. 21.],4,0.064,0.06758839986287057,0.6126846999395639,True,far-rndm,27,2,2,1.5,0.5,down,16,0
141,True,1.7728774999268353,33.0,800.0,100.0,0,0.16442829999141395,True,3,90,1.0,[21. 21.],4,0.064,0.07162589998915792,1.2259150999598205,True,far-rndm,28,3,3,2.25,0.5,down,16,0
142,True,1.8637383999302983,33.0,100.0,800.0,10,0.16664640000090003,True,2,90,1.0,[21. 21.],4,0.064,0.07396709988825023,0.7268763000611216,True,far-160,29,4,3,3.0,0.5,down,16,0
143,True,1.2860364001244307,33.0,800.0,100.0,0,0.16664640000090003,True,3,90,1.0,[21. 21.],70,1.12,1.126555599970743,0.4342297001276165,True,far-rnd2,29,1,1,0.75,1,down,2,0
144,True,1.242383599979803,33.0,100.0,800.0,5,0.08676879992708564,True,2,90,1.0,[21. 21.],72,1.1520000000000001,1.1613598000258207,0.519580899970606,True,far-080,29,5,5,3.75,2,up,2,0
145,True,1.874292500084266,33.0,100.0,800.0,0,0.08676879992708564,True,2,0,1.0,[21. 21.],4,0.064,0.06976679991930723,0.799604499945417,False,far-000,29,4,2,3.0,0.5,down,16,0
146,True,2.0625403998419642,33.0,100.0,800.0,5,0.08646950009278953,True,2,90,1.0,[21. 21.],72,1.1520000000000001,1.1577353000175208,0.35944540007039905,True,far-080,30,6,6,4.5,2,up,2,0
147,True,1.5880396999418736,33.0,100.0,800.0,10,0.16992799984291196,True,2,0,1.0,[21. 21.],4,0.064,0.0704797999933362,0.7828665000852197,True,far-160,30,5,4,3.75,0.5,down,16,0
148,True,1.5261699000839144,33.0,100.0,800.0,0,0.16992799984291196,True,2,90,1.0,[21. 21.],20,0.32,0.32915470004081726,0.45773639995604753,True,far-000,30,1,1,0.75,0.5,up,8,0
149,True,1.2925652998965234,33.0,800.0,100.0,0,0.16992799984291196,True,3,0,1.0,[21. 21.],0,0.0,0.004063500091433525,0.9868631998542696,False,far-rndm,29,1,0,0.75,0.5,down,16,0
150,True,1.4230867999140173,33.0,800.0,100.0,0,0.16992799984291196,True,3,0,1.0,[21. 21.],70,1.12,1.1236113000195473,0.3803605001885444,True,far-rnd2,30,2,2,1.5,2,down,2,0
151,True,2.306831199908629,33.0,50.0,100.0,0,0.16992799984291196,True,1,0,1.0,[21. 21.],70,1.12,1.12555589992553,0.20044729998335242,True,far-rnd2,31,3,3,2.25,2,down,2,0
152,True,1.7457900999579579,33.0,100.0,800.0,0,0.16992799984291196,True,2,90,1.0,[21. 21.],20,0.32,0.33080580015666783,0.48241209983825684,False,far-000,31,2,1,1.5,1,up,8,0
153,True,1.6560381001327187,33.0,100.0,800.0,10,0.21006289985962212,True,2,90,1.0,[21. 21.],4,0.064,0.07316220016218722,0.599811399821192,True,far-160,31,6,5,4.5,0.5,down,16,0
154,True,1.3362448001280427,33.0,100.0,800.0,5,0.08472080016508698,True,2,90,1.0,[21. 21.],72,1.1520000000000001,1.15777359995991,0.150249500060454,True,far-080,31,7,7,5.25,2,up,2,0
155,False,1.7429400999099016,33.0,50.0,100.0,0,0.08472080016508698,True,1,90,1.0,[21. 21.],16,0.256,0.2623807000927627,0.6854407999198884,True,far-rndm,30,1,1,0.75,0.5,up,8,0
156,True,1.5710496997926384,33.0,100.0,800.0,0,0.08472080016508698,True,2,90,1.0,[21. 21.],20,0.32,0.330531399929896,0.5080156000331044,True,far-000,32,3,2,2.25,1,up,8,0
157,True,1.436014600098133,33.0,100.0,800.0,10,0.16683949995785952,True,2,90,1.0,[21. 21.],4,0.064,0.0717764999717474,0.5809343999717385,True,far-160,32,7,6,5.25,0.5,down,16,0
158,True,1.599237299989909,33.0,100.0,800.0,5,0.08531210012733936,True,2,0,1.0,[21. 21.],72,1.1520000000000001,1.157634099945426,0.29155860003083944,True,far-080,32,8,8,6.0,2,up,2,0
159,True,1.5351037001237273,33.0,50.0,100.0,0,0.08531210012733936,True,1,90,1.0,[21. 21.],70,1.12,1.124662599992007,0.17256769980303943,True,far-rnd2,32,4,4,3.0,2,down,2,0
160,True,1.340099799912423,33.0,50.0,100.0,0,0.08531210012733936,True,1,0,1.0,[21. 21.],16,0.256,0.2605739999562502,0.5337807000614703,True,far-rndm,30,1,1,0.75,0.5,up,8,0
161,True,1.2721432000398636,33.0,100.0,800.0,5,0.08712160005234182,True,2,90,1.0,[21. 21.],72,1.1520000000000001,1.161028099944815,0.2500823000445962,True,far-080,33,9,9,6.75,2,up,2,1
162,True,1.4411009000614285,33.0,100.0,800.0,10,0.1657301001250744,True,2,90,1.0,[21. 21.],1,0.016,0.022102999966591597,0.7754882001318038,True,far-160,33,1,1,0.75,0.5,down,16,0
163,True,3.036757899913937,33.0,800.0,100.0,0,0.1657301001250744,True,3,90,1.0,[21. 21.],70,1.12,1.1257050998974591,0.36342059983871877,True,far-rnd2,33,5,5,3.75,2,down,2,0
164,True,1.4298467000480741,33.0,100.0,800.0,0,0.1657301001250744,True,2,0,1.0,[21. 21.],20,0.32,0.32741730008274317,0.5153270999435335,True,far-000,33,4,3,3.0,1,up,8,0
165,True,1.0362291999626905,33.0,800.0,100.0,0,0.1657301001250744,True,3,0,1.0,[21. 21.],16,0.256,0.2613383000716567,0.6844575998838991,True,far-rndm,31,2,2,1.5,1,up,8,0
166,True,1.9911343997810036,33.0,100.0,800.0,10,0.16434080014005303,True,2,90,1.0,[21. 21.],1,0.016,0.022726300172507763,0.6608393001370132,True,far-160,34,2,2,1.5,0.5,down,16,0
167,True,1.4254084001295269,33.0,33.0,100.0,0,0.16434080014005303,False,0,0,1.0,[21. 21.],16,0.256,0.2585249000694603,0.41348490002565086,True,far-rndm,32,3,3,2.25,1,up,8,0
168,True,1.3939388000871986,33.0,50.0,100.0,0,0.16434080014005303,True,1,0,1.0,[21. 21.],70,1.12,1.1258759000338614,0.3333890000358224,True,far-rnd2,34,6,6,4.5,2,down,2,0
169,True,1.605830900138244,33.0,100.0,800.0,5,0.08590569999068975,True,2,90,1.0,[21. 21.],71,1.1360000000000001,1.1446605001110584,0.2520510000176728,True,far-080,34,1,1,0.75,2,down,1,0
170,True,1.4676810000091791,33.0,100.0,800.0,0,0.08590569999068975,True,2,0,1.0,[21. 21.],20,0.32,0.32677980000153184,0.4495225001592189,True,far-000,34,5,4,3.75,1,up,8,0
171,True,2.650897700106725,33.0,800.0,100.0,0,0.08590569999068975,True,3,90,1.0,[21. 21.],70,1.12,1.1267707000952214,0.41817119996994734,True,far-rnd2,35,7,7,5.25,2,down,2,0
172,True,1.3968585000839084,33.0,100.0,800.0,5,0.08734320010989904,True,2,0,1.0,[21. 21.],71,1.1360000000000001,1.1469853001181036,0.08999170013703406,True,far-080,35,2,2,1.5,3,down,1,0
173,True,3.0484077997971326,33.0,100.0,800.0,0,0.08734320010989904,True,2,90,1.0,[21. 21.],20,0.32,0.3278072001412511,0.7676723999902606,False,far-000,35,6,4,4.5,1,up,8,0
174,True,1.0730262000579387,33.0,33.0,100.0,0,0.08734320010989904,False,0,0,1.0,[21. 21.],16,0.256,0.25965540017932653,0.47422870015725493,True,far-rndm,33,4,4,3.0,1,up,8,0
175,True,0.8408138998784125,33.0,100.0,800.0,10,0.1688526999205351,True,2,90,1.0,[21. 21.],1,0.016,0.024548899848014116,0.80042830016464,False,far-160,35,3,2,2.25,0.5,down,16,0
176,True,2.0914839999750257,33.0,100.0,800.0,0,0.1688526999205351,True,2,90,1.0,[21. 21.],20,0.32,0.32967650005593896,0.6009490001015365,True,far-000,36,7,5,5.25,1,up,8,0
177,True,1.6569886999204755,33.0,100.0,800.0,5,0.08424350013956428,True,2,90,1.0,[21. 21.],71,1.1360000000000001,1.1438491998706013,0.14064340014010668,True,far-080,36,3,3,2.25,3,down,1,0
178,True,1.4264008000027388,33.0,100.0,800.0,10,0.16446549980901182,True,2,90,1.0,[21. 21.],1,0.016,0.025909299962222576,0.6961374999955297,True,far-160,36,4,3,3.0,0.5,down,16,0
179,True,1.4180966999847442,33.0,33.0,100.0,0,0.16446549980901182,False,0,0,1.0,[21. 21.],16,0.256,0.25800280016846955,0.5098061000462621,True,far-rndm,34,5,5,3.75,1,up,8,0
180,True,1.2264992999844253,33.0,800.0,100.0,0,0.16446549980901182,True,3,90,1.0,[21. 21.],70,1.12,1.125655199866742,0.023261999944224954,True,far-rnd2,36,8,8,6.0,2,down,2,0
181,True,1.3516907000448555,33.0,50.0,100.0,0,0.16446549980901182,True,1,0,1.0,[21. 21.],70,1.12,1.1270880999509245,0.08500149985775352,True,far-rnd2,37,9,9,6.75,2,down,2,1
182,True,1.7993834000080824,33.0,50.0,100.0,0,0.16446549980901182,True,1,0,1.0,[21. 21.],8,0.128,0.134838999947533,0.5567871001549065,True,far-rndm,35,1,1,0.75,1,down,4,0
183,True,1.4602799001149833,33.0,100.0,800.0,0,0.16446549980901182,True,2,0,1.0,[21. 21.],20,0.32,0.32715829997323453,0.5981505999807268,True,far-000,37,8,6,6.0,1,up,8,0
184,True,1.2949230000376701,33.0,100.0,800.0,10,0.16574919992126524,True,2,90,1.0,[21. 21.],1,0.016,0.02246550004929304,0.719798699952662,True,far-160,37,5,4,3.75,0.5,down,16,0
185,True,1.8119993000291288,33.0,100.0,800.0,5,0.08745720004662871,True,2,0,1.0,[21. 21.],71,1.1360000000000001,1.14689249987714,0.28633869998157024,True,far-080,37,4,4,3.0,3,down,1,0
186,False,2.446369299897924,33.0,100.0,800.0,10,0.16597860003821552,True,2,0,1.0,[21. 21.],1,0.016,0.022562700090929866,0.6055554000195116,True,far-160,38,6,5,4.5,0.5,down,16,0
187,True,1.1881502999458462,33.0,33.0,100.0,0,0.16597860003821552,False,0,90,1.0,[21. 21.],69,1.104,1.106108000036329,0.6348964998032898,True,far-rnd2,38,1,1,0.75,2,down,1,0
188,True,0.9447606999892741,33.0,100.0,800.0,5,0.08648890000768006,True,2,0,1.0,[21. 21.],71,1.1360000000000001,1.1440059999004006,0.32731770002283156,True,far-080,38,5,5,3.75,3,down,1,0
189,True,1.7693276999052614,33.0,33.0,100.0,0,0.08648890000768006,False,0,0,1.0,[21. 21.],8,0.128,0.13014470017515123,0.5453139001037925,True,far-rndm,36,2,2,1.5,1,down,4,0
190,True,1.6468307001050562,33.0,100.0,800.0,0,0.08648890000768006,True,2,0,1.0,[21. 21.],20,0.32,0.329086400102824,0.9377565998584032,True,far-000,38,9,7,6.75,1,up,8,1
191,True,2.1757024000398815,33.0,100.0,800.0,10,0.16649199998937547,True,2,0,1.0,[21. 21.],1,0.016,0.021738999988883734,0.8011348000727594,True,far-160,38,6,5,4.5,0.5,down,16,0
192,True,1.378169200150296,33.0,800.0,100.0,0,0.16649199998937547,True,3,0,1.0,[21. 21.],8,0.128,0.13419679994694889,1.180089000146836,True,far-rndm,37,3,3,2.25,1,down,4,0
193,True,1.3207886999007314,33.0,100.0,800.0,5,0.08749759988859296,True,2,0,1.0,[21. 21.],71,1.1360000000000001,1.1419933000579476,0.3289979000110179,True,far-080,39,6,6,4.5,3,down,1,0
194,True,1.2831427999772131,33.0,50.0,100.0,0,0.08749759988859296,True,1,0,1.0,[21. 21.],69,1.104,1.1085642999969423,0.07692350004799664,True,far-rnd2,39,2,2,1.5,2,down,1,0
195,True,1.3766554999165237,33.0,100.0,800.0,0,0.08749759988859296,True,2,90,1.0,[21. 21.],20,0.32,0.3293116001877934,0.6537165998015553,False,far-000,39,10,7,7.5,1,up,8,1
196,True,1.6996730000246316,33.0,100.0,800.0,10,0.16461520013399422,True,2,90,1.0,[21. 21.],1,0.016,0.02628959994763136,0.6987566000316292,False,far-160,39,7,5,5.25,0.5,down,16,0
197,True,1.380056699970737,33.0,100.0,800.0,5,0.08747919998131692,True,2,0,1.0,[21. 21.],71,1.1360000000000001,1.1461569000966847,0.2321345000527799,True,far-080,40,7,7,5.25,3,down,1,0
198,True,2.2257211999967694,33.0,800.0,100.0,0,0.08747919998131692,True,3,0,1.0,[21. 21.],8,0.128,0.1361090000718832,0.8938313000835478,True,far-rndm,38,4,4,3.0,1,down,4,0
199,True,1.7332917000167072,33.0,100.0,800.0,0,0.08747919998131692,True,2,90,1.0,[21. 21.],20,0.32,0.33102399995550513,0.5333511999342591,True,far-000,40,11,8,8.25,1,up,8,1
200,True,1.7446242000441998,33.0,50.0,100.0,0,0.08747919998131692,True,1,90,1.0,[21. 21.],69,1.104,1.1124005001038313,0.36330320010893047,True,far-rnd2,40,3,3,2.25,2,down,1,0
201,True,1.3288605001289397,33.0,100.0,800.0,10,0.16681759990751743,True,2,0,1.0,[21. 21.],1,0.016,0.0288206001278013,0.866409600013867,True,far-160,40,8,6,6.0,0.5,down,16,0
202,True,1.5622785999439657,33.0,50.0,100.0,0,0.16681759990751743,True,1,0,1.0,[21. 21.],8,0.128,0.13674240000545979,0.6447803999762982,True,far-rndm,39,5,5,3.75,1,down,4,0
203,True,1.3156226000282913,33.0,800.0,100.0,0,0.16681759990751743,True,3,90,1.0,[21. 21.],69,1.104,1.1086471998132765,0.4161536998581141,True,far-rnd2,41,4,4,3.0,2,down,1,0
204,False,1.4534784001298249,33.0,100.0,800.0,0,0.16681759990751743,True,2,0,1.0,[21. 21.],20,0.32,0.32673610001802444,0.5937044001184404,True,far-000,41,12,9,9.0,1,up,8,1
205,True,2.0108777000568807,33.0,100.0,800.0,5,0.08479670016095042,True,2,0,1.0,[21. 21.],71,1.1360000000000001,1.1443713998887688,0.3657686999067664,True,far-080,41,8,8,6.0,3,down,1,0
206,True,1.5730648001190275,33.0,100.0,800.0,10,0.16592500009573996,True,2,0,1.0,[21. 21.],1,0.016,0.022055699955672026,0.6210644000675529,True,far-160,41,9,7,6.75,0.5,down,16,1
207,True,2.654161399928853,33.0,50.0,100.0,0,0.16592500009573996,True,1,0,1.0,[21. 21.],4,0.064,0.07040590001270175,0.5467599998228252,True,far-rndm,40,1,1,0.75,1,down,4,0
208,True,1.6469854000024498,33.0,100.0,800.0,0,0.16592500009573996,True,2,90,1.0,[21. 21.],20,0.32,0.32961890008300543,0.539799900026992,True,far-000,41,12,9,9.0,1,up,8,1
209,True,1.6666210999246687,33.0,800.0,100.0,0,0.16592500009573996,True,3,90,1.0,[21. 21.],69,1.104,1.1104257002007216,0.19018999999389052,False,far-rnd2,42,5,4,3.75,2,down,1,0
210,True,1.3053594001103193,33.0,800.0,100.0,0,0.16592500009573996,True,3,0,1.0,[21. 21.],69,1.104,1.1121859000995755,0.10274660005234182,True,far-rnd2,43,6,5,4.5,2,down,1,0
211,True,1.8474566999357194,33.0,800.0,100.0,0,0.16592500009573996,True,3,0,1.0,[21. 21.],4,0.064,0.06971159996464849,0.900425500003621,True,far-rndm,41,2,2,1.5,1,down,4,0
212,True,1.939645899925381,33.0,100.0,800.0,10,0.1666556999552995,True,2,90,1.0,[21. 21.],1,0.016,0.026882300153374672,0.7916258000768721,True,far-160,42,10,8,7.5,0.5,down,16,1
213,True,1.4957625002134591,33.0,100.0,800.0,0,0.1666556999552995,True,2,0,1.0,[21. 21.],20,0.32,0.32662980002351105,0.45204750006087124,True,far-000,42,13,10,9.75,1,up,8,1
214,True,1.5180829998571426,33.0,33.0,100.0,0,0.1666556999552995,False,0,0,1.0,[21. 21.],69,1.104,1.1082166000269353,0.33329609991051257,True,far-rnd2,44,7,6,5.25,2,down,1,0
215,True,1.2733885999768972,33.0,100.0,800.0,10,0.16451000003144145,True,2,90,1.0,[21. 21.],1,0.016,0.02189840003848076,0.9312386000528932,True,far-160,43,11,9,8.25,0.5,down,16,1
216,True,2.5293238998856395,33.0,100.0,800.0,0,0.16451000003144145,True,2,0,1.0,[21. 21.],20,0.32,0.32798729999922216,0.4542668000794947,True,far-000,43,14,11,10.5,1,up,8,1
217,True,1.5370742999948561,33.0,50.0,100.0,0,0.16451000003144145,True,1,90,1.0,[21. 21.],4,0.064,0.07354449992999434,0.6179863999132067,True,far-rndm,42,3,3,2.25,1,down,4,0
218,True,1.280770800076425,33.0,800.0,100.0,0,0.16451000003144145,True,3,0,1.0,[21. 21.],4,0.064,0.07000360009260476,1.180154699832201,True,far-rndm,43,4,4,3.0,1,down,4,0
219,True,1.21656689979136,33.0,100.0,800.0,10,0.1944575000088662,True,2,0,1.0,[21. 21.],1,0.016,0.024325300008058548,0.81155059998855,True,far-160,44,1,1,0.75,0.5,down,16,0
220,True,1.5426668000873178,33.0,33.0,100.0,0,0.1944575000088662,False,0,90,1.0,[21. 21.],69,1.104,1.1060126000083983,0.29037779988721013,True,far-rnd2,45,8,7,6.0,2,down,1,0
221,True,1.1552323999349028,33.0,100.0,800.0,0,0.1944575000088662,True,2,0,1.0,[21. 21.],20,0.32,0.32644989993423223,0.5173776999581605,False,far-000,44,15,11,11.25,1,up,8,1
222,True,2.241936700185761,33.0,800.0,100.0,0,0.1944575000088662,True,3,90,1.0,[21. 21.],4,0.064,0.06796710006892681,0.6693096999078989,True,far-rndm,44,5,5,3.75,1,down,4,0
223,False,1.598843599902466,33.0,800.0,100.0,0,0.1944575000088662,True,3,90,1.0,[21. 21.],69,1.104,1.1132422001101077,0.011085900012403727,True,far-rnd2,46,9,8,6.75,2,down,1,1
224,True,1.6489034001715481,33.0,100.0,800.0,0,0.1944575000088662,True,2,90,1.0,[21. 21.],20,0.32,0.32735990011133254,0.3982570997904986,True,far-000,45,16,12,12.0,1,up,8,1
225,True,1.6255572000518441,33.0,100.0,800.0,10,0.16494380007497966,True,2,0,1.0,[21. 21.],1,0.016,0.023025799775496125,0.6940955999307334,True,far-160,45,2,2,1.5,0.5,down,16,0
226,True,1.714139400050044,33.0,33.0,100.0,0,0.16494380007497966,False,0,90,1.0,[21. 21.],0,0.0,0.0021050998475402594,0.668531000148505,False,far-rndm,45,1,0,0.75,1,down,4,0
227,True,1.1508426000364125,33.0,50.0,100.0,0,0.16494380007497966,True,1,0,1.0,[21. 21.],69,1.104,1.11310869990848,0.30968730011954904,True,far-rnd2,46,9,8,6.75,2,down,1,1
228,True,1.636527800001204,33.0,100.0,800.0,0,0.16494380007497966,True,2,90,1.0,[21. 21.],20,0.32,0.3269218001514673,0.6105123001616448,False,far-000,46,17,12,12.75,1,up,8,2
229,True,1.7264598000328988,33.0,100.0,800.0,10,0.16388730006292462,True,2,90,1.0,[21. 21.],1,0.016,0.0266525000333786,0.772716399980709,True,far-160,46,3,3,2.25,0.5,down,16,0
230,True,1.1925052998121828,33.0,800.0,100.0,0,0.16388730006292462,True,3,0,1.0,[21. 21.],0,0.0,0.005031599896028638,0.9457380999810994,True,far-rndm,46,2,1,1.5,1,down,4,0
231,True,1.486704699927941,33.0,100.0,800.0,0,0.16388730006292462,True,2,0,1.0,[21. 21.],20,0.32,0.3306052000261843,0.4440590001177043,True,far-000,47,18,13,13.5,1,up,8,2
232,True,1.7834590999409556,33.0,50.0,100.0,0,0.16388730006292462,True,1,90,1.0,[21. 21.],69,1.104,1.1123599000275135,0.07205449999310076,True,far-rnd2,47,10,9,7.5,2,down,1,1
233,True,1.3903882999438792,33.0,100.0,800.0,10,0.1690551999490708,True,2,90,1.0,[21. 21.],1,0.016,0.022804100066423416,0.849600600078702,True,far-160,47,1,1,0.75,0.5,down,16,0
234,True,1.4164468999952078,33.0,50.0,100.0,0,0.1690551999490708,True,1,0,1.0,[21. 21.],69,1.104,1.1118360999971628,0.39625509991310537,True,far-rnd2,48,11,10,8.25,2,down,1,1
235,True,3.01026130001992,33.0,100.0,800.0,10,0.16809069993905723,True,2,0,1.0,[21. 21.],1,0.016,0.026813199976459146,0.8248093000147492,True,far-160,48,2,2,1.5,0.5,down,16,0
236,True,1.5321643000934273,33.0,100.0,800.0,0,0.16809069993905723,True,2,0,1.0,[21. 21.],20,0.32,0.327191999880597,0.4283788001630455,True,far-000,48,19,14,14.25,1,up,8,2
237,False,1.39035170013085,33.0,800.0,100.0,0,0.16809069993905723,True,3,0,1.0,[21. 21.],0,0.0,0.004024500027298927,1.0823558999691159,True,far-rndm,47,3,2,2.25,1,down,4,0
238,True,1.6696902001276612,33.0,100.0,800.0,0,0.16809069993905723,True,2,0,1.0,[21. 21.],20,0.32,0.3284845999442041,0.5820561998989433,True,far-000,49,20,15,15.0,1,up,8,2
239,True,1.4085911000147462,33.0,800.0,100.0,0,0.16809069993905723,True,3,0,1.0,[21. 21.],69,1.104,1.1107942999806255,1.2029566001147032,True,far-rnd2,49,12,11,9.0,2,down,1,1
240,True,1.7025635000318289,33.0,100.0,800.0,10,0.1680715000256896,True,2,0,1.0,[21. 21.],1,0.016,0.02145319990813732,0.7379262000322342,True,far-160,49,3,3,2.25,0.5,down,16,0
241,True,1.6616637001279742,33.0,800.0,100.0,0,0.1680715000256896,True,3,0,1.0,[21. 21.],0,0.0,0.00344030000269413,0.8521449998952448,False,far-rndm,47,3,1,2.25,1,down,4,0
242,True,1.6766633000224829,33.0,100.0,800.0,10,0.16652099997736514,True,2,0,1.0,[21. 21.],1,0.016,0.02289199992083013,0.7683894999790937,True,far-160,50,1,1,0.75,0.5,down,16,0
243,True,1.5282619001809508,33.0,100.0,800.0,0,0.16652099997736514,True,2,0,1.0,[21. 21.],20,0.32,0.32985139987431467,0.4857824998907745,True,far-000,50,21,16,15.75,1,up,8,2
244,True,1.2675887001678348,33.0,800.0,100.0,0,0.16652099997736514,True,3,0,1.0,[21. 21.],4,0.064,0.0710485999006778,0.7042171000503004,True,far-rndm,48,1,1,0.75,1,up,2,0
245,True,1.8488193999510258,33.0,50.0,100.0,0,0.16652099997736514,True,1,0,1.0,[21. 21.],69,1.104,1.1099314000457525,0.2765875000040978,True,far-rnd2,50,13,12,9.75,2,down,1,1
246,True,1.387123900000006,33.0,100.0,800.0,0,0.16652099997736514,True,2,0,1.0,[21. 21.],20,0.32,0.32706260005943477,1.181356000015512,True,far-000,51,22,17,16.5,1,up,8,2
247,True,1.8329620000440627,33.0,100.0,800.0,10,0.16656209994107485,True,2,90,1.0,[21. 21.],1,0.016,0.02345130010508001,0.7375745000317693,False,far-160,51,2,1,1.5,0.5,down,16,0
248,True,1.7738689000252634,33.0,33.0,100.0,0,0.16656209994107485,False,0,0,1.0,[21. 21.],68,1.088,1.0898927000816911,0.31476320000365376,True,far-rnd2,51,1,1,0.75,2,down,1,0
249,True,1.185774799901992,33.0,33.0,100.0,0,0.16656209994107485,False,0,0,1.0,[21. 21.],4,0.064,0.06871649995446205,0.4314966001547873,True,far-rndm,49,2,2,1.5,2,up,2,0
250,True,1.011099399998784,33.0,100.0,800.0,0,0.16656209994107485,True,2,90,1.0,[21. 21.],20,0.32,0.32999959983862936,0.5472277998924255,False,far-000,52,23,17,17.25,1,up,8,2
251,True,1.5301460998598486,33.0,800.0,100.0,0,0.16656209994107485,True,3,0,1.0,[21. 21.],68,1.088,1.0950490001123399,0.10765739995986223,False,far-rnd2,52,2,1,1.5,2,down,1,0
252,True,1.7018436000216752,33.0,100.0,800.0,10,0.16529400018043816,True,2,90,1.0,[21. 21.],1,0.016,0.024167400086298585,1.6485578999854624,True,far-160,52,3,2,2.25,0.5,down,16,0
253,True,2.023359199985862,33.0,800.0,100.0,0,0.16529400018043816,True,3,90,1.0,[21. 21.],4,0.064,0.07037370000034571,0.9480916000902653,False,far-rndm,50,3,2,2.25,2,up,2,0
254,True,1.5581002999097109,33.0,100.0,800.0,10,0.16768259997479618,True,2,90,1.0,[21. 21.],1,0.016,0.02487800014205277,0.7786707000341266,True,far-160,53,4,3,3.0,0.5,down,16,0
255,True,1.4934112001210451,33.0,100.0,800.0,0,0.16768259997479618,True,2,90,1.0,[21. 21.],20,0.32,0.32842899998649955,0.5230292999185622,True,far-000,53,24,18,18.0,1,up,8,2
256,True,1.477940100012347,33.0,800.0,100.0,0,0.16768259997479618,True,3,90,1.0,[21. 21.],4,0.064,0.07137449993751943,1.0102313000243157,True,far-rndm,51,4,3,3.0,2,up,2,0
257,True,1.4369115000590682,33.0,50.0,100.0,0,0.16768259997479618,True,1,90,1.0,[21. 21.],68,1.088,1.092818200122565,0.2985231000930071,True,far-rnd2,53,3,2,2.25,2,down,1,0
258,True,1.1545655000954866,33.0,33.0,100.0,0,0.16768259997479618,False,0,90,1.0,[21. 21.],4,0.064,0.0659300999250263,0.7213417000602931,True,far-rndm,52,5,4,3.75,2,up,2,0
259,True,1.6082427001092583,33.0,100.0,800.0,0,0.16768259997479618,True,2,90,1.0,[21. 21.],20,0.32,0.32773340004496276,0.5133189999032766,True,far-000,54,25,19,18.75,1,up,8,3
260,True,1.4738886000122875,33.0,800.0,100.0,0,0.16768259997479618,True,3,0,1.0,[21. 21.],68,1.088,1.0924128000624478,0.08108389982953668,False,far-rnd2,54,4,2,3.0,2,down,1,0
261,True,1.6063095000572503,33.0,100.0,800.0,10,0.1655629000160843,True,2,0,1.0,[21. 21.],1,0.016,0.0226390000898391,0.6505621001124382,True,far-160,54,5,4,3.75,0.5,down,16,0
262,True,1.4955178999807686,33.0,33.0,100.0,0,0.1655629000160843,False,0,0,1.0,[21. 21.],4,0.064,0.06702640000730753,0.8449035999365151,True,far-rndm,53,6,5,4.5,2,up,2,0
263,True,1.7266939000692219,33.0,100.0,800.0,10,0.16600169986486435,True,2,90,1.0,[21. 21.],1,0.016,0.023479500086978078,0.8115039002150297,False,far-160,55,6,4,4.5,0.5,down,16,0
264,True,2.7434265001211315,33.0,100.0,800.0,0,0.16600169986486435,True,2,0,1.0,[21. 21.],20,0.32,0.32978090015240014,0.893388899974525,False,far-000,55,26,19,19.5,1,up,8,3
265,True,1.652617999818176,33.0,33.0,100.0,0,0.16600169986486435,False,0,90,1.0,[21. 21.],68,1.088,1.0907539001200348,0.39038969995453954,True,far-rnd2,55,5,3,3.75,2,down,1,0
266,True,1.2366640002001077,33.0,100.0,800.0,0,0.16600169986486435,True,2,90,1.0,[21. 21.],20,0.32,0.32847289997152984,0.642720100004226,True,far-000,56,27,20,20.25,1,up,8,3
267,True,1.1738215000368655,33.0,100.0,800.0,10,0.16740939998999238,True,2,90,1.0,[21. 21.],1,0.016,0.02583299996331334,0.6649120000656694,True,far-160,56,7,5,5.25,0.5,down,16,0
268,True,1.4717329998966306,33.0,800.0,100.0,0,0.16740939998999238,True,3,0,1.0,[21. 21.],4,0.064,0.07131840009242296,0.9760888000018895,True,far-rndm,54,7,6,5.25,2,up,2,0
269,True,1.690405000001192,33.0,800.0,100.0,0,0.16740939998999238,True,3,0,1.0,[21. 21.],68,1.088,1.0934540999587625,0.3857950000092387,True,far-rnd2,56,6,4,4.5,2,down,1,0
270,True,1.6662515001371503,33.0,100.0,800.0,0,0.16740939998999238,True,2,0,1.0,[21. 21.],20,0.32,0.32857050001621246,0.5059543999377638,True,far-000,57,28,21,21.0,1,up,8,3
271,True,1.8259178998414427,33.0,800.0,100.0,0,0.16740939998999238,True,3,90,1.0,[21. 21.],68,1.088,1.0945247998461127,0.40141619998030365,True,far-rnd2,57,7,5,5.25,2,down,1,0
272,True,1.6500607999041677,33.0,800.0,100.0,0,0.16740939998999238,True,3,0,1.0,[21. 21.],4,0.064,0.06953460001386702,0.8743655998259783,True,far-rndm,55,8,7,6.0,2,up,2,0
273,True,1.3133998999837786,33.0,100.0,800.0,10,0.16452440014109015,True,2,0,1.0,[21. 21.],1,0.016,0.02786170016042888,0.7595754000358284,False,far-160,57,8,5,6.0,0.5,down,16,0
274,True,1.5715068001300097,33.0,100.0,800.0,10,0.16696090018376708,True,2,90,1.0,[21. 21.],9,0.14400000000000002,0.1513229999691248,0.678697400027886,True,far-160,58,1,1,0.75,0.5,up,4,0
275,True,1.442492499947548,33.0,100.0,800.0,0,0.16696090018376708,True,2,90,1.0,[21. 21.],20,0.32,0.32704450003802776,0.4854606001172215,True,far-000,58,29,22,21.75,1,up,8,3
276,True,1.866714800009504,33.0,33.0,100.0,0,0.16696090018376708,False,0,0,1.0,[21. 21.],4,0.064,0.06612819992005825,0.8356826999224722,False,far-rndm,56,9,7,6.75,2,up,2,1
277,True,0.9622695001307875,33.0,50.0,100.0,0,0.16696090018376708,True,1,90,1.0,[21. 21.],68,1.088,1.0952018001116812,0.5347466999664903,True,far-rnd2,58,8,6,6.0,2,down,1,0
278,True,1.4352700000163168,33.0,100.0,800.0,10,0.16555370017886162,True,2,90,1.0,[21. 21.],9,0.14400000000000002,0.15235150000080466,0.5227200998924673,True,far-160,59,2,2,1.5,1,up,4,0
279,True,1.4394163000397384,33.0,33.0,100.0,0,0.16555370017886162,False,0,90,1.0,[21. 21.],68,1.088,1.0909017000813037,0.43747449992224574,True,far-rnd2,59,9,7,6.75,2,down,1,1
280,True,1.5149262000340968,33.0,100.0,800.0,0,0.16555370017886162,True,2,0,1.0,[21. 21.],20,0.32,0.32825940009206533,0.5260396997909993,False,far-000,59,30,22,22.5,1,up,8,3
281,True,1.5839267999399453,33.0,33.0,100.0,0,0.16555370017886162,False,0,0,1.0,[21. 21.],4,0.064,0.06623650016263127,0.8136654999107122,True,far-rndm,57,10,8,7.5,2,up,2,1
282,True,1.9393064000178128,33.0,33.0,100.0,0,0.16555370017886162,False,0,90,1.0,[21. 21.],68,1.088,1.0905806000810117,0.43266739998944104,True,far-rnd2,60,10,8,7.5,2,down,1,1
283,True,1.8679627000819892,33.0,100.0,800.0,0,0.16555370017886162,True,2,90,1.0,[21. 21.],20,0.32,0.3281680999789387,0.4463400999084115,True,far-000,60,31,23,23.25,1,up,8,3
284,True,2.5100074000656605,33.0,33.0,100.0,0,0.16555370017886162,False,0,90,1.0,[21. 21.],4,0.064,0.06901440001092851,0.47010940010659397,True,far-rndm,58,11,9,8.25,2,up,2,1
285,True,0.8259811999741942,33.0,100.0,800.0,10,0.16453459998592734,True,2,0,1.0,[21. 21.],9,0.14400000000000002,0.15429840004071593,0.4992913999594748,False,far-160,60,3,2,2.25,1,up,4,0
286,True,1.2614067001268268,33.0,100.0,800.0,0,0.16453459998592734,True,2,90,1.0,[21. 21.],20,0.32,0.32747050002217293,0.370868599973619,True,far-000,61,32,24,24.0,1,up,8,3
287,True,1.3191732000559568,33.0,33.0,100.0,0,0.16453459998592734,False,0,0,1.0,[21. 21.],4,0.064,0.0682880999520421,0.691532599972561,True,far-rndm,59,12,10,9.0,2,up,2,1
288,True,1.166864600032568,33.0,800.0,100.0,0,0.16453459998592734,True,3,0,1.0,[21. 21.],68,1.088,1.0953244999982417,0.5450595000293106,True,far-rnd2,61,11,9,8.25,2,down,1,1
289,True,1.828973300056532,33.0,100.0,800.0,10,0.16388030000962317,True,2,90,1.0,[21. 21.],9,0.14400000000000002,0.15109569998458028,0.6397052998654544,True,far-160,61,4,3,3.0,1,up,4,0
290,True,1.4531297001522034,33.0,100.0,800.0,10,0.16596670006401837,True,2,90,1.0,[21. 21.],9,0.14400000000000002,0.15178940002806485,0.5928728999570012,True,far-160,62,5,4,3.75,1,up,4,0
291,True,1.4996316998731345,33.0,100.0,800.0,0,0.16596670006401837,True,2,0,1.0,[21. 21.],20,0.32,0.32600899995304644,0.4393207998946309,True,far-000,62,33,25,24.75,1,up,8,4
292,True,1.6605414999648929,33.0,33.0,100.0,0,0.16596670006401837,False,0,0,1.0,[21. 21.],68,1.088,1.0903145000338554,0.3008411000482738,True,far-rnd2,62,12,10,9.0,2,down,1,1
293,True,1.167739599943161,33.0,50.0,100.0,0,0.16596670006401837,True,1,90,1.0,[21. 21.],4,0.064,0.07023599999956787,0.6432374999858439,True,far-rndm,60,13,11,9.75,2,up,2,1
294,True,1.4857036001048982,33.0,100.0,800.0,0,0.16596670006401837,True,2,0,1.0,[21. 21.],20,0.32,0.3265561000443995,0.7125798999331892,False,far-000,63,34,25,25.5,1,up,8,4
295,True,1.415201700059697,33.0,100.0,800.0,10,0.20163570018485188,True,2,90,1.0,[21. 21.],9,0.14400000000000002,0.15004099998623133,0.5828901000786573,True,far-160,63,6,5,4.5,1,up,4,0
296,True,1.4872449000831693,33.0,50.0,100.0,0,0.20163570018485188,True,1,90,1.0,[21. 21.],68,1.088,1.0948379999026656,0.48585009993985295,True,far-rnd2,63,13,11,9.75,2,down,1,1
297,True,1.529999400023371,33.0,33.0,100.0,0,0.20163570018485188,False,0,90,1.0,[21. 21.],4,0.064,0.06619239994324744,0.9852985001634806,True,far-rndm,61,14,12,10.5,2,up,2,1
298,True,1.7372288999613374,33.0,800.0,100.0,0,0.20163570018485188,True,3,90,1.0,[21. 21.],68,1.088,1.0953101001214236,0.46858000010252,True,far-rnd2,64,14,12,10.5,2,down,1,1
299,True,2.086309799924493,33.0,33.0,100.0,0,0.20163570018485188,False,0,90,1.0,[21. 21.],4,0.064,0.06753319990821183,0.7718706999439746,True,far-rndm,62,15,13,11.25,2,up,2,1
300,True,1.011172299971804,33.0,100.0,800.0,0,0.20163570018485188,True,2,90,1.0,[21. 21.],20,0.32,0.3300040001049638,0.5190161000937223,True,far-000,64,35,26,26.25,1,up,8,4
301,True,1.1608410999178886,33.0,100.0,800.0,10,0.1642926000058651,True,2,90,1.0,[21. 21.],9,0.14400000000000002,0.15229379991069436,0.595255000051111,True,far-160,64,7,6,5.25,1,up,4,0
302,True,1.6312768999487162,33.0,100.0,800.0,10,0.16356790019199252,True,2,90,1.0,[21. 21.],9,0.14400000000000002,0.15079460013657808,0.5002082998398691,True,far-160,65,8,7,6.0,1,up,4,0
303,True,1.7794627000112087,33.0,800.0,100.0,0,0.16356790019199252,True,3,0,1.0,[21. 21.],68,1.088,1.095636900048703,0.2731240000575781,False,far-rnd2,65,15,12,11.25,2,down,1,1
304,True,1.7074873999226838,33.0,33.0,100.0,0,0.16356790019199252,False,0,0,1.0,[21. 21.],4,0.064,0.06664040009491146,0.7828369000926614,True,far-rndm,63,16,14,12.0,2,up,2,1
305,True,1.317610900150612,33.0,100.0,800.0,0,0.16356790019199252,True,2,0,1.0,[21. 21.],20,0.32,0.3299745998810977,0.4886308000423014,True,far-000,65,36,27,27.0,1,up,8,4
306,True,1.3770616000983864,33.0,100.0,800.0,0,0.16356790019199252,True,2,90,1.0,[21. 21.],20,0.32,0.3281615001615137,0.6339571001008153,False,far-000,66,37,27,27.75,1,up,8,4
307,True,1.521989299915731,33.0,33.0,100.0,0,0.16356790019199252,False,0,90,1.0,[21. 21.],4,0.064,0.06648010015487671,0.5855505999643356,True,far-rndm,64,17,15,12.75,2,up,2,2
308,True,2.0536805000156164,33.0,100.0,800.0,10,0.16725849988870323,True,2,0,1.0,[21. 21.],9,0.14400000000000002,0.15464550000615418,0.6009607999585569,False,far-160,66,9,7,6.75,1,up,4,1
309,True,1.7363092999439687,33.0,33.0,100.0,0,0.16725849988870323,False,0,90,1.0,[21. 21.],68,1.088,1.0905206999741495,0.32182949990965426,True,far-rnd2,66,16,13,12.0,2,down,1,1
310,True,1.0447350000031292,33.0,100.0,800.0,10,0.16571810003370047,True,2,0,1.0,[21. 21.],9,0.14400000000000002,0.1517063002102077,0.5353824000339955,False,far-160,67,10,7,7.5,1,up,4,1
311,True,1.6075419997796416,33.0,800.0,100.0,0,0.16571810003370047,True,3,0,1.0,[21. 21.],3,0.048,0.055248300079256296,0.829767799936235,False,far-rndm,65,1,0,0.75,2,down,16,0
312,True,1.692613400053233,33.0,100.0,800.0,0,0.16571810003370047,True,2,90,1.0,[21. 21.],20,0.32,0.33027189993299544,0.34760469989851117,True,far-000,67,38,28,28.5,1,up,8,4
313,True,1.2128683000337332,33.0,800.0,100.0,0,0.16571810003370047,True,3,90,1.0,[21. 21.],68,1.088,1.0928638998884708,0.4517634999938309,True,far-rnd2,67,17,14,12.75,2,down,16,2
314,True,1.7551845000125468,33.0,100.0,800.0,0,0.16571810003370047,True,2,90,1.0,[21. 21.],20,0.32,0.3261934998445213,0.5894866001326591,True,far-000,68,39,29,29.25,1,up,8,4
315,True,1.3865467000287026,33.0,33.0,100.0,0,0.16571810003370047,False,0,90,1.0,[21. 21.],64,1.024,1.0275884999427944,0.2920768999028951,True,far-rnd2,68,1,1,0.75,0.5,down,4,0
316,True,1.3008559001609683,33.0,50.0,100.0,0,0.16571810003370047,True,1,0,1.0,[21. 21.],19,0.304,0.3112709999550134,0.4388762000016868,True,far-rndm,66,1,1,0.75,0.5,up,8,0
317,True,1.6230494999326766,33.0,100.0,800.0,10,0.16661160020157695,True,2,90,1.0,[21. 21.],9,0.14400000000000002,0.15217990009114146,0.6392818000167608,True,far-160,68,11,8,8.25,1,up,4,1
318,True,1.2905432998668402,33.0,33.0,100.0,0,0.16661160020157695,False,0,90,1.0,[21. 21.],19,0.304,0.3076408999040723,0.41979370010085404,True,far-rndm,67,2,2,1.5,1,up,8,0
319,False,2.008262100163847,33.0,33.0,100.0,0,0.16661160020157695,False,0,0,1.0,[21. 21.],64,1.024,1.0273210001178086,0.14387539983727038,True,far-rnd2,69,2,2,1.5,1,down,4,0
320,True,1.4783437000587583,33.0,100.0,800.0,0,0.16661160020157695,True,2,90,1.0,[21. 21.],20,0.32,0.3302916001994163,0.5893435999751091,True,far-000,69,40,30,30.0,1,up,8,4
321,False,1.4892283999361098,33.0,100.0,800.0,10,0.16540900012478232,True,2,0,1.0,[21. 21.],9,0.14400000000000002,0.15465819998644292,0.5288419998250902,False,far-160,69,12,8,9.0,1,up,4,1
322,True,1.5078098000958562,33.0,800.0,100.0,0,0.16540900012478232,True,3,0,1.0,[21. 21.],19,0.304,0.31115829991176724,1.1640551998279989,False,far-rndm,68,3,2,2.25,1,up,8,0
323,True,1.5474948000628501,33.0,100.0,800.0,10,0.16714429995045066,True,2,90,1.0,[21. 21.],9,0.14400000000000002,0.15458760014735162,0.6877371999435127,True,far-160,69,12,9,9.0,1,up,4,1
324,True,1.427897300105542,33.0,800.0,100.0,0,0.16714429995045066,True,3,0,1.0,[21. 21.],64,1.024,1.0304503999650478,0.2896855999715626,True,far-rnd2,69,2,2,1.5,1,down,4,0
325,True,2.4203487001359463,33.0,800.0,100.0,0,0.16714429995045066,True,3,0,1.0,[21. 21.],19,0.304,0.3105846999678761,0.5026953001506627,True,far-rndm,69,4,3,3.0,1,up,8,0
326,True,1.5476943999528885,33.0,100.0,800.0,10,0.16623580013401806,True,2,90,1.0,[21. 21.],9,0.14400000000000002,0.15605980018153787,0.6078488000202924,True,far-160,70,13,10,9.75,1,up,4,1
327,True,1.6838383001741022,33.0,50.0,100.0,0,0.16623580013401806,True,1,0,1.0,[21. 21.],64,1.024,1.0305441000964493,0.4646960999816656,True,far-rnd2,70,3,3,2.25,1,down,4,0
328,True,1.2135892000515014,33.0,50.0,100.0,0,0.16623580013401806,True,1,90,1.0,[21. 21.],19,0.304,0.309451200067997,0.5834699000697583,True,far-rndm,70,5,4,3.75,1,up,8,0
329,True,2.3246260001324117,33.0,800.0,100.0,0,0.16623580013401806,True,3,0,1.0,[21. 21.],64,1.024,1.0309641000349075,0.27403130009770393,True,far-rnd2,71,4,4,3.0,1,down,4,0
330,True,1.3067923998460174,33.0,100.0,800.0,10,0.16652890015393496,True,2,90,1.0,[21. 21.],9,0.14400000000000002,0.15197480004280806,0.516427000053227,True,far-160,71,14,11,10.5,1,up,4,1
331,True,1.6955899000167847,33.0,50.0,100.0,0,0.16652890015393496,True,1,90,1.0,[21. 21.],64,1.024,1.0312139999587089,0.3612009999342263,True,far-rnd2,72,5,5,3.75,1,down,4,0
332,True,1.3775339000858366,33.0,800.0,100.0,0,0.16652890015393496,True,3,90,1.0,[21. 21.],19,0.304,0.31109789991751313,0.8524318998679519,False,far-rndm,71,6,4,4.5,1,up,8,0
333,True,1.724782699951902,33.0,100.0,800.0,10,0.1668821000494063,True,2,90,1.0,[21. 21.],9,0.14400000000000002,0.154746999964118,0.4941231000702828,True,far-160,72,15,12,11.25,1,up,4,1
334,True,1.4592032001819462,33.0,100.0,800.0,10,0.16797299985773861,True,2,0,1.0,[21. 21.],9,0.14400000000000002,0.15080769988708198,0.5126203999388963,True,far-160,73,16,13,12.0,1,up,4,1
335,True,1.8117898998316377,33.0,800.0,100.0,0,0.16797299985773861,True,3,0,1.0,[21. 21.],60,0.96,0.9658102998510003,0.03189860004931688,False,far-rnd2,73,1,0,0.75,1,down,4,0
336,True,2.567808900028467,33.0,50.0,100.0,0,0.16797299985773861,True,1,0,1.0,[21. 21.],19,0.304,0.30872670002281666,0.46197999990545213,True,far-rndm,72,7,5,5.25,1,up,8,0
337,True,1.2260940000414848,33.0,100.0,800.0,10,0.16449779993854463,True,2,0,1.0,[21. 21.],9,0.14400000000000002,0.14955010008998215,0.4984717001207173,True,far-160,74,17,14,12.75,1,up,4,2
338,True,1.245094999903813,33.0,33.0,100.0,0,0.16449779993854463,False,0,90,1.0,[21. 21.],60,0.96,0.9624960001092404,0.38142560003325343,True,far-rnd2,74,2,1,1.5,1,down,4,0
339,True,0.7659249000716954,33.0,33.0,100.0,0,0.16449779993854463,False,0,90,1.0,[21. 21.],19,0.304,0.30591359990648925,0.2941854000091553,True,far-rndm,73,8,6,6.0,1,up,8,0
340,True,0.8065121998079121,33.0,100.0,800.0,10,0.16583279985934496,True,2,0,1.0,[21. 21.],8,0.128,0.13919779984280467,0.7720252000726759,True,far-160,75,1,1,0.75,1,down,1,0
341,True,1.469721799949184,33.0,33.0,100.0,0,0.16583279985934496,False,0,0,1.0,[21. 21.],19,0.304,0.3068369999527931,0.5407239999622107,True,far-rndm,74,9,7,6.75,1,up,8,1
342,True,0.6191551999654621,33.0,800.0,100.0,0,0.16583279985934496,True,3,90,1.0,[21. 21.],60,0.96,0.9651607000268996,0.5215250998735428,True,far-rnd2,75,3,2,2.25,1,down,4,0
343,True,1.4093196000903845,33.0,33.0,100.0,0,0.16583279985934496,False,0,0,1.0,[21. 21.],19,0.304,0.3092176001518965,0.43811150011606514,True,far-rndm,75,10,8,7.5,1,up,8,1
344,True,1.1986830001696944,33.0,100.0,800.0,10,0.1641693999990821,True,2,90,1.0,[21. 21.],8,0.128,0.1346946000121534,0.8059980000834912,True,far-160,76,2,2,1.5,3,down,1,0
345,True,1.327246499946341,33.0,50.0,100.0,0,0.1641693999990821,True,1,90,1.0,[21. 21.],60,0.96,0.9684371000621468,0.36090060020796955,True,far-rnd2,76,4,3,3.0,1,down,4,0
346,True,1.6915539999026805,33.0,33.0,100.0,0,0.1641693999990821,False,0,90,1.0,[21. 21.],19,0.304,0.30678480002097785,0.4217304999474436,True,far-rndm,76,11,9,8.25,1,up,8,1
347,True,1.0519119000528008,33.0,33.0,100.0,0,0.1641693999990821,False,0,90,1.0,[21. 21.],60,0.96,0.9620962999761105,0.4043627998325974,True,far-rnd2,77,5,4,3.75,1,down,4,0
348,True,1.4292142000049353,33.0,100.0,800.0,10,0.16759370011277497,True,2,90,1.0,[21. 21.],8,0.128,0.13808140018954873,0.6877927999012172,True,far-160,77,3,3,2.25,3,down,1,0
349,True,2.004246999975294,33.0,100.0,800.0,10,0.16508940001949668,True,2,90,1.0,[21. 21.],8,0.128,0.13714620005339384,0.6113766001071781,True,far-160,78,4,4,3.0,3,down,1,0
350,True,2.0579684001859277,33.0,50.0,100.0,0,0.16508940001949668,True,1,90,1.0,[21. 21.],60,0.96,0.9669834999367595,0.518000700045377,True,far-rnd2,78,6,5,4.5,1,down,4,0
351,True,1.7626153000164777,33.0,50.0,100.0,0,0.16508940001949668,True,1,0,1.0,[21. 21.],19,0.304,0.31010959995910525,0.4058079000096768,True,far-rndm,77,12,10,9.0,1,up,8,1
352,True,1.0622940000612289,33.0,100.0,800.0,10,0.16809940012171865,True,2,0,1.0,[21. 21.],8,0.128,0.13400519988499582,0.5633348000701517,True,far-160,79,5,5,3.75,3,down,1,0
353,True,1.4590345998294652,33.0,50.0,100.0,0,0.16809940012171865,True,1,0,1.0,[21. 21.],19,0.304,0.3137952999677509,0.440557099878788,True,far-rndm,78,13,11,9.75,1,up,8,1
354,True,1.3472331000957638,33.0,800.0,100.0,0,0.16809940012171865,True,3,0,1.0,[21. 21.],60,0.96,0.9658033999148756,0.4915416999720037,True,far-rnd2,79,7,6,5.25,1,down,4,0
355,True,2.3207465999294072,33.0,100.0,800.0,10,0.16639390005730093,True,2,0,1.0,[21. 21.],8,0.128,0.18278830009512603,0.5532339001074433,True,far-160,80,6,6,4.5,3,down,1,0
356,True,1.7081641000695527,33.0,50.0,100.0,0,0.16639390005730093,True,1,0,1.0,[21. 21.],60,0.96,0.9678740999661386,0.33740750001743436,True,far-rnd2,80,8,7,6.0,1,down,4,0
357,True,1.2208857999648899,33.0,800.0,100.0,0,0.16639390005730093,True,3,90,1.0,[21. 21.],15,0.24,0.2441588998772204,1.294878600165248,False,far-rndm,79,1,0,0.75,1,down,2,0
358,True,1.6754403999075294,33.0,800.0,100.0,0,0.16639390005730093,True,3,90,1.0,[21. 21.],15,0.24,0.24402950005605817,0.9860350999515504,False,far-rndm,80,2,0,1.5,2,down,2,0
359,True,1.661670699948445,33.0,50.0,100.0,0,0.16639390005730093,True,1,0,1.0,[21. 21.],60,0.96,0.9697658000513911,0.3260934001300484,True,far-rnd2,81,9,8,6.75,1,down,4,1
360,True,1.3602267999667674,33.0,100.0,800.0,10,0.1670903000049293,True,2,90,1.0,[21. 21.],8,0.128,0.13946889992803335,0.622542800148949,True,far-160,81,7,7,5.25,3,down,1,0
361,True,1.4276670999825,33.0,33.0,100.0,0,0.1670903000049293,False,0,90,1.0,[21. 21.],15,0.24,0.2422909999731928,0.616950900061056,True,far-rndm,81,3,1,2.25,2,down,2,0
362,True,1.0880257000681013,33.0,800.0,100.0,0,0.1670903000049293,True,3,0,1.0,[21. 21.],58,0.928,0.9340622001327574,0.5185064000543207,True,far-rnd2,82,1,1,0.75,1,down,2,0
363,True,1.3865263999905437,33.0,100.0,800.0,10,0.16617140010930598,True,2,0,1.0,[21. 21.],8,0.128,0.13443200010806322,0.596032900037244,True,far-160,82,8,8,6.0,3,down,1,0
