trial,primeCorrect,primeTime,primeDepth,stimDepth,diopters,nearToFar,orientation,contrast,frequency,intensity,requestedLatency,actualLatency,responseTime,correct,caseLabel,caseTrial,trialsAtStep,stepCorrect,expected,w,direction,stepsize,stepChange
1,True,2.276257600169629,800.0,50.0,33.0,5,0.08232860011048615,False,2,90,1.0,[21. 21.],60,0.96,0.9679159000515938,0.07677630009129643,False,near-080,1,1,0,0.75,0.5,start,16,0
2,True,1.7813518999610096,800.0,50.0,33.0,10,0.16230729990638793,False,2,0,1.0,[21. 21.],60,0.96,0.9649702000897378,0.26249580015428364,True,near-160,1,1,1,0.75,0.5,start,16,0
3,True,1.9827177999541163,800.0,100.0,50.0,0,0.16230729990638793,False,1,0,1.0,[21. 21.],60,0.96,0.965537500102073,0.32421519979834557,True,near-rndm,1,1,1,0.75,0.5,start,16,0
4,True,1.4579624000471085,800.0,50.0,33.0,0,0.16230729990638793,False,2,0,1.0,[21. 21.],60,0.96,0.9653794001787901,0.26759700011461973,True,near-000,1,1,1,0.75,0.5,start,16,0
5,True,1.4579378999769688,800.0,33.0,50.0,0,0.16230729990638793,False,3,90,1.0,[21. 21.],60,0.96,0.9622807998675853,0.29782600002363324,True,near-rnd2,1,1,1,0.75,0.5,start,16,0
6,True,1.4127170001156628,800.0,33.0,50.0,0,0.16230729990638793,False,3,0,1.0,[21. 21.],60,0.96,0.9630233000498265,0.2887120998930186,True,near-rndm,2,2,2,1.5,0.5,start,16,0
7,True,1.9846471000928432,800.0,33.0,50.0,0,0.16230729990638793,False,3,90,1.0,[21. 21.],60,0.96,0.9636892999988049,0.23259790008887649,True,near-rnd2,2,2,2,1.5,0.5,start,16,0
8,True,1.9436109000816941,800.0,50.0,33.0,10,0.16321000014431775,False,2,0,1.0,[21. 21.],60,0.96,0.9648293999489397,0.2969973001163453,True,near-160,2,2,2,1.5,0.5,start,16,0
9,True,1.4356718000490218,800.0,50.0,33.0,0,0.16321000014431775,False,2,0,1.0,[21. 21.],60,0.96,0.9658762000035495,0.3030256999190897,True,near-000,2,2,2,1.5,0.5,start,16,0
10,True,1.8769404999911785,800.0,50.0,33.0,5,0.08364700013771653,False,2,90,1.0,[21. 21.],76,1.216,1.2220620000734925,0.25821930007077754,True,near-080,2,1,1,0.75,0.5,up,8,0
11,True,1.3972008000127971,800.0,33.0,50.0,0,0.08364700013771653,False,3,90,1.0,[21. 21.],60,0.96,0.9638670000713319,0.30285930004902184,True,near-rnd2,3,3,3,2.25,0.5,start,16,0
12,True,1.977299999911338,800.0,50.0,33.0,0,0.08364700013771653,False,2,0,1.0,[21. 21.],60,0.96,0.9651425001211464,0.30631460016593337,True,near-000,3,3,3,2.25,0.5,start,16,0
13,True,1.4788188999518752,800.0,33.0,50.0,0,0.08364700013771653,False,3,90,1.0,[21. 21.],60,0.96,0.9627075998578221,0.2909732998814434,True,near-rndm,3,3,3,2.25,0.5,start,16,0
14,True,1.5669789998792112,800.0,50.0,33.0,5,0.08188700000755489,False,2,90,1.0,[21. 21.],76,1.216,1.2217073000501841,0.25449450011365116,True,near-080,3,2,2,1.5,1,up,8,0
15,True,1.3326395000331104,800.0,50.0,33.0,10,0.16222659987397492,False,2,90,1.0,[21. 21.],60,0.96,0.9665281001944095,0.25888979993760586,True,near-160,3,3,3,2.25,0.5,start,16,0
16,True,1.243261099793017,800.0,100.0,50.0,0,0.16222659987397492,False,1,90,1.0,[21. 21.],44,0.704,0.7085229000076652,0.36078629991970956,True,near-rnd2,4,1,1,0.75,0.5,down,8,0
17,True,1.2410041000694036,800.0,50.0,33.0,5,0.0838657000567764,False,2,0,1.0,[21. 21.],76,1.216,1.2194457000587136,0.23941499995999038,True,near-080,4,3,3,2.25,1,up,8,0
18,True,1.796222799923271,800.0,50.0,33.0,10,0.16288039996288717,False,2,90,1.0,[21. 21.],44,0.704,0.7081321000587195,0.2908010999672115,True,near-160,4,1,1,0.75,0.5,down,8,0
19,True,1.4530782999936491,800.0,50.0,33.0,0,0.16288039996288717,False,2,90,1.0,[21. 21.],44,0.704,0.7103105001151562,0.3263040001038462,True,near-000,4,1,1,0.75,0.5,down,8,0
20,True,2.0687231000047177,800.0,100.0,50.0,0,0.16288039996288717,False,1,90,1.0,[21. 21.],44,0.704,0.7120632999576628,0.3181386000942439,True,near-rndm,4,1,1,0.75,0.5,down,8,0
21,True,1.286158800125122,800.0,800.0,50.0,0,0.16288039996288717,False,0,0,1.0,[21. 21.],44,0.704,0.7077077999711037,0.29161570011638105,True,near-rnd2,5,2,2,1.5,1,down,8,0
22,True,1.7572542000561953,800.0,50.0,33.0,10,0.16232759994454682,False,2,0,1.0,[21. 21.],44,0.704,0.7107588001526892,0.3720287000760436,True,near-160,5,2,2,1.5,1,down,8,0
23,True,1.5936384000815451,800.0,33.0,50.0,0,0.16232759994454682,False,3,90,1.0,[21. 21.],44,0.704,0.7061817001085728,0.3869222002103925,True,near-rndm,5,2,2,1.5,1,down,8,0
24,True,1.3988523001316935,800.0,50.0,33.0,5,0.0821191999129951,False,2,0,1.0,[21. 21.],76,1.216,1.222152299946174,0.07864710013382137,False,near-080,5,4,3,3.0,1,up,8,0
25,True,1.4307174000423402,800.0,50.0,33.0,0,0.0821191999129951,False,2,90,1.0,[21. 21.],44,0.704,0.7093442999757826,0.34512079996056855,True,near-000,5,2,2,1.5,1,down,8,0
26,True,1.4712970000691712,800.0,50.0,33.0,10,0.1629274000879377,False,2,0,1.0,[21. 21.],44,0.704,0.707920900080353,0.39564909995533526,True,near-160,6,3,3,2.25,1,down,8,0
27,True,1.9512230998370796,800.0,50.0,33.0,0,0.1629274000879377,False,2,0,1.0,[21. 21.],44,0.704,0.7100062998943031,0.36089119990356266,True,near-000,6,3,3,2.25,1,down,8,0
28,True,1.382287200074643,800.0,800.0,50.0,0,0.1629274000879377,False,0,0,1.0,[21. 21.],44,0.704,0.70917829987593,0.43367239995859563,True,near-rndm,6,3,3,2.25,1,down,8,0
29,True,2.0660874999593943,800.0,50.0,33.0,5,0.08226539986208081,False,2,90,1.0,[21. 21.],76,1.216,1.2204688000492752,0.45115739991888404,True,near-080,6,5,4,3.75,1,up,8,0
30,True,1.4916224000044167,800.0,800.0,50.0,0,0.08226539986208081,False,0,90,1.0,[21. 21.],44,0.704,0.7080841998104006,0.31940659997053444,True,near-rnd2,6,3,3,2.25,1,down,8,0
31,True,1.3590122000314295,800.0,100.0,50.0,0,0.08226539986208081,False,1,0,1.0,[21. 21.],44,0.704,0.7116162998136133,0.35092690004967153,True,near-rnd2,7,4,4,3.0,1,down,8,0
32,True,1.5500211999751627,800.0,50.0,33.0,0,0.08226539986208081,False,2,0,1.0,[21. 21.],44,0.704,0.709098800085485,0.4791874000802636,True,near-000,7,4,4,3.0,1,down,8,0
33,True,1.2678702999837697,800.0,800.0,50.0,0,0.08226539986208081,False,0,90,1.0,[21. 21.],44,0.704,0.7091520999092609,0.35995459998957813,True,near-rndm,7,4,4,3.0,1,down,8,0
34,True,1.1283363001421094,800.0,50.0,33.0,10,0.16417400003410876,False,2,90,1.0,[21. 21.],44,0.704,0.7085076000075787,0.30875359987840056,True,near-160,7,4,4,3.0,1,down,8,0
35,True,1.3604525001719594,800.0,50.0,33.0,5,0.08305940008722246,False,2,90,1.0,[21. 21.],76,1.216,1.2221275002229959,0.23577449982985854,True,near-080,7,6,5,4.5,1,up,8,0
36,True,1.315655899932608,800.0,50.0,33.0,0,0.08305940008722246,False,2,90,1.0,[21. 21.],44,0.704,0.7109521001111716,0.37954049999825656,True,near-000,8,5,5,3.75,1,down,8,0
37,False,1.322510999860242,800.0,100.0,50.0,0,0.08305940008722246,False,1,90,1.0,[21. 21.],44,0.704,0.7099746000021696,0.4139994001016021,True,near-rndm,8,5,5,3.75,1,down,8,0
38,True,1.0084284998010844,800.0,50.0,33.0,5,0.08212810009717941,False,2,0,1.0,[21. 21.],76,1.216,1.2212984000798315,0.2789423998910934,True,near-080,8,7,6,5.25,1,up,8,0
39,True,1.0740026999264956,800.0,50.0,33.0,10,0.16289809998124838,False,2,90,1.0,[21. 21.],44,0.704,0.7110892999917269,0.3429310000501573,True,near-160,8,5,5,3.75,1,down,8,0
40,True,2.4577794999349862,800.0,100.0,50.0,0,0.16289809998124838,False,1,0,1.0,[21. 21.],44,0.704,0.7094305001664907,0.4008462999481708,True,near-rnd2,8,5,5,3.75,1,down,8,0
41,True,1.2354094001930207,800.0,50.0,33.0,0,0.16289809998124838,False,2,90,1.0,[21. 21.],36,0.5760000000000001,0.5824492000974715,0.46322999987751245,True,near-000,9,1,1,0.75,1,down,8,0
42,True,1.3715098998509347,800.0,50.0,33.0,10,0.16349399997852743,False,2,0,1.0,[21. 21.],36,0.5760000000000001,0.5832972000353038,0.41696209996007383,True,near-160,9,1,1,0.75,1,down,8,0
43,True,1.2408350000623614,800.0,50.0,33.0,5,0.08323189988732338,False,2,90,1.0,[21. 21.],76,1.216,1.220132399816066,0.3498885000590235,True,near-080,9,8,7,6.0,1,up,8,0
44,True,1.3173984999302775,800.0,100.0,50.0,0,0.08323189988732338,False,1,0,1.0,[21. 21.],44,0.704,0.7094223001040518,0.42110990011133254,True,near-rndm,8,5,5,3.75,1,down,8,0
45,True,1.2087522998917848,800.0,800.0,50.0,0,0.08323189988732338,False,0,90,1.0,[21. 21.],36,0.5760000000000001,0.5792097998782992,0.4850399000570178,True,near-rnd2,9,1,1,0.75,1,down,8,0
46,True,1.5249509999994189,800.0,50.0,33.0,0,0.08323189988732338,False,2,0,1.0,[21. 21.],36,0.5760000000000001,0.5814246998634189,0.5345922000706196,True,near-000,10,2,2,1.5,1,down,8,0
47,True,1.8831506001297385,800.0,33.0,50.0,0,0.08323189988732338,False,3,0,1.0,[21. 21.],36,0.5760000000000001,0.5783639000728726,0.40089699998497963,True,near-rndm,9,1,1,0.75,1,down,8,0
48,True,1.3115938000846654,800.0,800.0,50.0,0,0.08323189988732338,False,0,0,1.0,[21. 21.],36,0.5760000000000001,0.580177600029856,0.4297656000126153,True,near-rnd2,10,2,2,1.5,1,down,8,0
49,True,1.3299366999417543,800.0,50.0,33.0,5,0.08288090000860393,False,2,0,1.0,[21. 21.],76,1.216,1.2203620998188853,0.31073580007068813,True,near-080,10,9,8,6.75,1,up,8,1
50,True,1.3871627000626177,800.0,50.0,33.0,10,0.16143880016170442,False,2,90,1.0,[21. 21.],36,0.5760000000000001,0.5812333999201655,0.33972950000315905,True,near-160,10,2,2,1.5,1,down,8,0
51,True,1.2374046000186354,800.0,50.0,33.0,10,0.16283199982717633,False,2,90,1.0,[21. 21.],36,0.5760000000000001,0.581458400003612,0.3269557000603527,True,near-160,11,3,3,2.25,1,down,8,0
52,True,1.3941083999816328,800.0,50.0,33.0,0,0.16283199982717633,False,2,90,1.0,[21. 21.],36,0.5760000000000001,0.5810658000409603,0.3288360000588,True,near-000,11,3,3,2.25,1,down,8,0
53,True,1.1165842998307198,800.0,50.0,33.0,5,0.08247900009155273,False,2,0,1.0,[21. 21.],72,1.1520000000000001,1.1586954998783767,0.28628139989450574,True,near-080,11,1,1,0.75,1,down,2,0
54,True,1.421064699999988,800.0,33.0,50.0,0,0.08247900009155273,False,3,90,1.0,[21. 21.],36,0.5760000000000001,0.5790583998896182,0.4254871001467109,True,near-rnd2,11,3,3,2.25,1,down,8,0
55,True,1.6847093999385834,800.0,100.0,50.0,0,0.08247900009155273,False,1,0,1.0,[21. 21.],36,0.5760000000000001,0.581006099935621,0.3853709998074919,True,near-rndm,10,2,2,1.5,1,down,8,0
56,True,1.38136009988375,800.0,800.0,50.0,0,0.08247900009155273,False,0,0,1.0,[21. 21.],36,0.5760000000000001,0.5788687998428941,0.4442890000063926,True,near-rnd2,12,4,4,3.0,1,down,8,0
57,True,1.0714709998574108,800.0,50.0,33.0,5,0.08200410008430481,False,2,0,1.0,[21. 21.],72,1.1520000000000001,1.158973400015384,0.2916947999037802,True,near-080,12,2,2,1.5,2,down,2,0
58,True,1.505004300037399,800.0,800.0,50.0,0,0.08200410008430481,False,0,0,1.0,[21. 21.],36,0.5760000000000001,0.5808657000306994,0.4760243999771774,True,near-rndm,11,3,3,2.25,1,down,8,0
59,True,1.1823535999283195,800.0,50.0,33.0,0,0.08200410008430481,False,2,90,1.0,[21. 21.],36,0.5760000000000001,0.5807827000971884,0.38275650003924966,True,near-000,12,4,4,3.0,1,down,8,0
60,True,1.3606509000528604,800.0,50.0,33.0,10,0.16232580016367137,False,2,0,1.0,[21. 21.],36,0.5760000000000001,0.5799871000926942,0.5495169998612255,True,near-160,12,4,4,3.0,1,down,8,0
61,True,1.1996734000276774,800.0,33.0,50.0,0,0.16232580016367137,False,3,90,1.0,[21. 21.],36,0.5760000000000001,0.5790442998986691,0.39861560007557273,True,near-rndm,12,4,4,3.0,1,down,8,0
62,True,1.444825200131163,800.0,100.0,50.0,0,0.16232580016367137,False,1,90,1.0,[21. 21.],36,0.5760000000000001,0.5802603999618441,0.36949319997802377,True,near-rnd2,13,5,5,3.75,1,down,8,0
63,False,1.1124565000645816,800.0,50.0,33.0,10,0.1631195000372827,False,2,0,1.0,[21. 21.],36,0.5760000000000001,0.5810787999071181,0.43260809988714755,True,near-160,13,5,5,3.75,1,down,8,0
64,True,1.2376466998830438,800.0,50.0,33.0,0,0.1631195000372827,False,2,90,1.0,[21. 21.],36,0.5760000000000001,0.584438499994576,0.35447679995559156,True,near-000,13,5,5,3.75,1,down,8,0
65,True,1.25884689996019,800.0,50.0,33.0,5,0.08374830009415746,False,2,90,1.0,[21. 21.],72,1.1520000000000001,1.1565201999619603,0.37321610003709793,True,near-080,13,3,3,2.25,2,down,2,0
66,True,1.3123536000493914,800.0,800.0,50.0,0,0.08374830009415746,False,0,0,1.0,[21. 21.],36,0.5760000000000001,0.5791715001687407,0.35914049996063113,True,near-rndm,13,5,5,3.75,1,down,8,0
67,True,1.4705819999799132,800.0,50.0,33.0,5,0.08239270001649857,False,2,0,1.0,[21. 21.],72,1.1520000000000001,1.1591296000406146,0.3796474998816848,True,near-080,14,4,4,3.0,2,down,2,0
68,True,1.803495300002396,800.0,33.0,50.0,0,0.08239270001649857,False,3,90,1.0,[21. 21.],28,0.448,0.45035180007107556,0.7344126999378204,False,near-rnd2,14,1,0,0.75,1,down,8,0
69,True,1.7227914999239147,800.0,50.0,33.0,0,0.08239270001649857,False,2,0,1.0,[21. 21.],28,0.448,0.4523891001008451,0.8515699999406934,True,near-000,14,1,1,0.75,1,down,8,0
70,True,1.2974928000476211,800.0,50.0,33.0,10,0.16329600010067225,False,2,0,1.0,[21. 21.],36,0.5760000000000001,0.583004399901256,0.38954999996349216,True,near-160,13,5,5,3.75,1,down,8,0
71,True,1.2949054001364857,800.0,33.0,50.0,0,0.16329600010067225,False,3,90,1.0,[21. 21.],28,0.448,0.4501321997959167,0.6403600999619812,True,near-rndm,14,1,1,0.75,1,down,8,0
72,True,1.1619323000777513,800.0,800.0,50.0,0,0.16329600010067225,False,0,90,1.0,[21. 21.],28,0.448,0.45213969983160496,0.6509779999032617,True,near-rnd2,15,2,1,1.5,1,down,8,0
73,True,1.0139128998853266,800.0,50.0,33.0,10,0.16339870006777346,False,2,90,1.0,[21. 21.],28,0.448,0.4531916999258101,0.42789510008879006,True,near-160,14,1,1,0.75,1,down,8,0
74,True,1.3610241999849677,800.0,50.0,33.0,0,0.16339870006777346,False,2,90,1.0,[21. 21.],28,0.448,0.452755399979651,0.5263664999511093,True,near-000,15,2,2,1.5,1,down,8,0
75,True,1.3100031001958996,800.0,50.0,33.0,5,0.08380619995296001,False,2,0,1.0,[21. 21.],72,1.1520000000000001,1.1576853999868035,0.27412449987605214,True,near-080,15,5,5,3.75,2,down,2,0
76,True,1.590016699861735,800.0,50.0,33.0,0,0.08380619995296001,False,2,0,1.0,[21. 21.],28,0.448,0.4520548000000417,0.5164832000155002,False,near-000,16,3,2,2.25,1,down,8,0
77,True,1.131450999993831,800.0,800.0,50.0,0,0.08380619995296001,False,0,90,1.0,[21. 21.],28,0.448,0.4531819000840187,0.5364548000507057,True,near-rndm,15,2,2,1.5,1,down,8,0
78,True,0.8647845000959933,800.0,33.0,50.0,0,0.08380619995296001,False,3,0,1.0,[21. 21.],28,0.448,0.4507496999576688,0.4808426999952644,False,near-rnd2,16,3,1,2.25,1,down,8,0
79,True,1.1550813999492675,800.0,50.0,33.0,5,0.0838321999181062,False,2,0,1.0,[21. 21.],72,1.1520000000000001,1.1565148001536727,0.1117954000364989,False,near-080,16,6,5,4.5,2,down,2,0
80,True,1.7997693999204785,800.0,50.0,33.0,10,0.16247950005345047,False,2,0,1.0,[21. 21.],28,0.448,0.4520368000958115,0.44889670005068183,True,near-160,15,2,2,1.5,1,down,8,0
81,True,1.5166420000605285,800.0,50.0,33.0,10,0.16273310012184083,False,2,90,1.0,[21. 21.],28,0.448,0.4518023000564426,0.3960695001296699,True,near-160,16,3,3,2.25,1,down,8,0
82,True,1.472746899817139,800.0,33.0,50.0,0,0.16273310012184083,False,3,0,1.0,[21. 21.],28,0.448,0.45117739983834326,0.4970382999163121,False,near-rndm,16,3,2,2.25,1,down,8,0
83,True,1.2647438999265432,800.0,800.0,50.0,0,0.16273310012184083,False,0,90,1.0,[21. 21.],36,0.5760000000000001,0.5794830999802798,0.5132869000080973,True,near-rnd2,17,1,1,0.75,1,up,4,0
84,True,0.8093049000017345,800.0,50.0,33.0,0,0.16273310012184083,False,2,0,1.0,[21. 21.],28,0.448,0.45345019991509616,0.5968843000009656,False,near-000,17,4,2,3.0,1,down,8,0
85,True,0.8707667000126094,800.0,50.0,33.0,5,0.08312999992631376,False,2,90,1.0,[21. 21.],72,1.1520000000000001,1.159212099853903,0.2967448001727462,True,near-080,17,7,6,5.25,2,down,2,0
86,True,1.4749020000454038,800.0,33.0,50.0,0,0.08312999992631376,False,3,90,1.0,[21. 21.],36,0.5760000000000001,0.5780663001351058,0.45490949996747077,True,near-rnd2,18,2,2,1.5,1,up,4,0
87,True,1.2219746999908239,800.0,50.0,33.0,5,0.08365330006927252,False,2,90,1.0,[21. 21.],72,1.1520000000000001,1.1561497999355197,0.33247440005652606,True,near-080,18,8,7,6.0,2,down,2,0
88,True,1.637876199791208,800.0,50.0,33.0,0,0.08365330006927252,False,2,0,1.0,[21. 21.],28,0.448,0.45396139984950423,0.6981327999383211,True,near-000,18,5,3,3.75,1,down,8,0
89,True,1.689283300191164,800.0,100.0,50.0,0,0.08365330006927252,False,1,90,1.0,[21. 21.],28,0.448,0.45480769989080727,0.40105829993262887,True,near-rndm,17,4,3,3.0,1,down,8,0
90,True,0.9853942000772804,800.0,50.0,33.0,10,0.16279420000500977,False,2,90,1.0,[21. 21.],28,0.448,0.45445309998467565,0.40594500000588596,True,near-160,17,4,4,3.0,1,down,8,0
91,True,0.979471200145781,800.0,100.0,50.0,0,0.16279420000500977,False,1,90,1.0,[21. 21.],36,0.5760000000000001,0.5829358999617398,0.38770810002461076,True,near-rnd2,19,3,3,2.25,1,up,4,0
92,True,1.4645216001663357,800.0,100.0,50.0,0,0.16279420000500977,False,1,90,1.0,[21. 21.],28,0.448,0.452805700013414,0.39829859999008477,True,near-rndm,18,5,4,3.75,1,down,8,0
93,True,0.8798003999982029,800.0,50.0,33.0,10,0.16291610011830926,False,2,90,1.0,[21. 21.],28,0.448,0.4515522001311183,0.372633800143376,True,near-160,18,5,5,3.75,1,down,8,0
94,True,1.363468399969861,800.0,50.0,33.0,0,0.16291610011830926,False,2,0,1.0,[21. 21.],28,0.448,0.45263379998505116,0.38307789992541075,False,near-000,19,6,3,4.5,1,down,8,0
95,True,1.2272363998927176,800.0,50.0,33.0,5,0.08293689996935427,False,2,90,1.0,[21. 21.],72,1.1520000000000001,1.1557573999743909,0.3013518999796361,True,near-080,19,9,8,6.75,2,down,2,1
96,True,1.1655824000481516,800.0,50.0,33.0,5,0.08110529999248683,False,2,0,1.0,[21. 21.],72,1.1520000000000001,1.1587358999531716,0.2465530999470502,True,near-080,20,10,9,7.5,2,down,2,1
97,True,1.6069345001596957,800.0,800.0,50.0,0,0.08110529999248683,False,0,90,1.0,[21. 21.],36,0.5760000000000001,0.5809861000161618,0.3936264000367373,True,near-rnd2,20,4,4,3.0,1,up,4,0
98,True,1.1442952998913825,800.0,100.0,50.0,0,0.08110529999248683,False,1,90,1.0,[21. 21.],28,0.448,0.4553079998586327,0.3967637000605464,True,near-rndm,19,6,5,4.5,1,down,8,0
99,True,2.229831299977377,800.0,50.0,33.0,10,0.16350120003335178,False,2,90,1.0,[21. 21.],20,0.32,0.3263487000949681,0.3756083999760449,True,near-160,19,1,1,0.75,1,down,16,0
100,True,1.822758900001645,800.0,50.0,33.0,0,0.16350120003335178,False,2,90,1.0,[21. 21.],36,0.5760000000000001,0.5803147000260651,0.3151840001810342,True,near-000,20,1,1,0.75,1,up,4,0
101,True,1.2253688999917358,800.0,50.0,33.0,0,0.16350120003335178,False,2,0,1.0,[21. 21.],36,0.5760000000000001,0.580626199953258,0.6089540999382734,True,near-000,21,2,2,1.5,1,up,4,0
102,True,1.29639649996534,800.0,33.0,50.0,0,0.16350120003335178,False,3,90,1.0,[21. 21.],28,0.448,0.4511066998820752,0.4823249999899417,True,near-rndm,20,7,6,5.25,1,down,8,0
103,True,1.736053999979049,800.0,100.0,50.0,0,0.16350120003335178,False,1,0,1.0,[21. 21.],36,0.5760000000000001,0.5837284999433905,0.3782383999787271,True,near-rnd2,21,5,5,3.75,1,up,4,0
104,True,1.5830455999821424,800.0,50.0,33.0,10,0.16303479997441173,False,2,0,1.0,[21. 21.],20,0.32,0.32630989979952574,0.6181936000939459,True,near-160,20,2,2,1.5,0.5,down,16,0
105,True,1.1445893000345677,800.0,50.0,33.0,5,0.0830522000323981,False,2,0,1.0,[21. 21.],72,1.1520000000000001,1.1566417999565601,0.2583166998811066,True,near-080,21,11,10,8.25,2,down,2,1
106,True,1.373579200124368,800.0,50.0,33.0,5,0.08207370014861226,False,2,90,1.0,[21. 21.],72,1.1520000000000001,1.1585172000341117,0.27079620002768934,True,near-080,22,12,11,9.0,2,down,2,1
107,True,1.3022191000636667,800.0,50.0,33.0,0,0.08207370014861226,False,2,0,1.0,[21. 21.],36,0.5760000000000001,0.5798706999048591,0.5239357999525964,True,near-000,22,3,3,2.25,1,up,4,0
108,True,1.3933518999256194,800.0,33.0,50.0,0,0.08207370014861226,False,3,0,1.0,[21. 21.],28,0.448,0.4510851998347789,0.5133853999432176,True,near-rndm,21,8,7,6.0,1,down,8,0
109,True,1.3356157999951392,800.0,33.0,50.0,0,0.08207370014861226,False,3,90,1.0,[21. 21.],32,0.512,0.5149395000189543,0.48234419990330935,True,near-rnd2,22,1,1,0.75,1,down,2,0
110,True,1.0075912999454886,800.0,50.0,33.0,10,0.16279809991829097,False,2,0,1.0,[21. 21.],20,0.32,0.32491090008988976,0.47023239987902343,True,near-160,21,3,3,2.25,0.5,down,16,0
111,True,1.1372736999765038,800.0,50.0,33.0,5,0.08175519993528724,False,2,0,1.0,[21. 21.],72,1.1520000000000001,1.157983799930662,0.3152431999333203,True,near-080,23,13,12,9.75,2,down,2,1
112,True,1.6938261999748647,800.0,50.0,33.0,0,0.08175519993528724,False,2,0,1.0,[21. 21.],36,0.5760000000000001,0.5819385000504553,0.4815401998348534,True,near-000,23,4,4,3.0,1,up,4,0
113,True,1.3080353001132607,800.0,33.0,50.0,0,0.08175519993528724,False,3,0,1.0,[21. 21.],32,0.512,0.5159767000004649,0.42684760014526546,True,near-rnd2,23,2,2,1.5,2,down,2,0
114,True,1.511687699938193,800.0,50.0,33.0,10,0.16336479992605746,False,2,90,1.0,[21. 21.],4,0.064,0.0691499998793006,0.632921100128442,False,near-160,22,1,0,0.75,0.5,down,16,0
115,True,0.942933099810034,800.0,800.0,50.0,0,0.16336479992605746,False,0,90,1.0,[21. 21.],28,0.448,0.4521635000128299,0.38360499986447394,True,near-rndm,22,9,8,6.75,1,down,8,1
116,True,1.454957300098613,800.0,50.0,33.0,10,0.1629389999434352,False,2,90,1.0,[21. 21.],20,0.32,0.3240032000467181,0.5559049001894891,True,near-160,23,1,1,0.75,0.5,up,8,0
117,True,1.2051740000024438,800.0,800.0,50.0,0,0.1629389999434352,False,0,0,1.0,[21. 21.],24,0.384,0.3872528998181224,0.4644716000184417,True,near-rndm,23,1,1,0.75,1,down,8,0
118,True,1.046739500015974,800.0,100.0,50.0,0,0.1629389999434352,False,1,90,1.0,[21. 21.],32,0.512,0.517877799924463,0.34454109985381365,True,near-rnd2,24,3,3,2.25,2,down,2,0
119,True,1.0372939000371844,800.0,50.0,33.0,0,0.1629389999434352,False,2,90,1.0,[21. 21.],36,0.5760000000000001,0.5808929998893291,0.4285034001804888,True,near-000,24,5,5,3.75,1,up,4,0
120,False,1.3773487999569625,800.0,50.0,33.0,5,0.08214760012924671,False,2,90,1.0,[21. 21.],71,1.1360000000000001,1.143289600033313,0.29496579989790916,True,near-080,24,1,1,0.75,2,down,1,0
121,True,1.5527790999040008,800.0,800.0,50.0,0,0.08214760012924671,False,0,0,1.0,[21. 21.],32,0.512,0.5267084999941289,0.36022699996829033,True,near-rnd2,25,4,4,3.0,2,down,2,0
122,True,1.797297399956733,800.0,50.0,33.0,5,0.08281729998998344,False,2,0,1.0,[21. 21.],71,1.1360000000000001,1.1421632999554276,0.12269119988195598,True,near-080,24,1,1,0.75,2,down,1,0
123,True,1.456628100015223,800.0,100.0,50.0,0,0.08281729998998344,False,1,0,1.0,[21. 21.],24,0.384,0.3889353999402374,0.4739467999897897,True,near-rndm,24,2,2,1.5,1,down,8,0
124,True,1.7112763999029994,800.0,50.0,33.0,0,0.08281729998998344,False,2,0,1.0,[21. 21.],32,0.512,0.5182344999630004,0.6044840000104159,False,near-000,25,1,0,0.75,1,down,2,0
125,True,1.4536636001430452,800.0,50.0,33.0,10,0.16133500006981194,False,2,90,1.0,[21. 21.],20,0.32,0.32466250006109476,0.5249159999657422,True,near-160,24,2,2,1.5,1,up,8,0
126,True,1.5471544999163598,800.0,50.0,33.0,5,0.08156670001335442,False,2,90,1.0,[21. 21.],71,1.1360000000000001,1.1403379999101162,0.34547180007211864,True,near-080,25,2,2,1.5,2,down,1,0
127,True,1.1446710999589413,800.0,33.0,50.0,0,0.08156670001335442,False,3,90,1.0,[21. 21.],32,0.512,0.5141241000965238,0.6492614999879152,False,near-rnd2,26,5,4,3.75,2,down,2,0
128,True,1.2597497999668121,800.0,50.0,33.0,10,0.16193970013409853,False,2,90,1.0,[21. 21.],20,0.32,0.3247668999247253,0.5205079999286681,True,near-160,25,3,3,2.25,1,up,8,0
129,True,1.2542127000633627,800.0,33.0,50.0,0,0.16193970013409853,False,3,90,1.0,[21. 21.],24,0.384,0.38744329987093806,0.7824369999580085,True,near-rndm,25,3,3,2.25,1,down,8,0
130,True,1.2905898001044989,800.0,50.0,33.0,0,0.16193970013409853,False,2,90,1.0,[21. 21.],32,0.512,0.5180274001322687,0.4736894001252949,True,near-000,26,2,1,1.5,2,down,2,0
131,True,1.4250175999477506,800.0,100.0,50.0,0,0.16193970013409853,False,1,0,1.0,[21. 21.],24,0.384,0.3898521000519395,0.46778369997628033,True,near-rndm,26,4,4,3.0,1,down,8,0
132,True,1.0893326001241803,800.0,50.0,33.0,5,0.08314300002530217,False,2,0,1.0,[21. 21.],71,1.1360000000000001,1.1416678000241518,0.2646588000934571,True,near-080,26,3,3,2.25,2,down,1,0
133,True,1.557648800080642,800.0,50.0,33.0,0,0.08314300002530217,False,2,90,1.0,[21. 21.],32,0.512,0.5170223999302834,0.5066863999236375,True,near-000,27,3,2,2.25,2,down,2,0
134,True,1.6141870999708772,800.0,33.0,50.0,0,0.08314300002530217,False,3,90,1.0,[21. 21.],32,0.512,0.5149314000736922,0.4271392000373453,True,near-rnd2,27,6,5,4.5,2,down,2,0
135,True,2.5361292001325637,800.0,50.0,33.0,10,0.1638431998435408,False,2,90,1.0,[21. 21.],20,0.32,0.3239559999201447,0.4465240999124944,True,near-160,26,4,4,3.0,1,up,8,0
136,True,1.7037738000508398,800.0,800.0,50.0,0,0.1638431998435408,False,0,90,1.0,[21. 21.],24,0.384,0.3892210000194609,0.4367054000031203,True,near-rndm,27,5,5,3.75,1,down,8,0
137,True,1.2245731998700649,800.0,50.0,33.0,10,0.16345059988088906,False,2,0,1.0,[21. 21.],20,0.32,0.32413119985722005,0.7844833000563085,True,near-160,27,5,5,3.75,1,up,8,0
138,True,1.3912666998803616,800.0,800.0,50.0,0,0.16345059988088906,False,0,0,1.0,[21. 21.],32,0.512,0.5178955001756549,0.4497784001287073,True,near-rnd2,28,7,6,5.25,2,down,2,0
139,True,2.0936499000526965,800.0,50.0,33.0,5,0.08363800006918609,False,2,90,1.0,[21. 21.],71,1.1360000000000001,1.1413583001121879,0.29176980000920594,True,near-080,27,4,4,3.0,2,down,1,0
140,True,1.1961361998692155,800.0,50.0,33.0,0,0.08363800006918609,False,2,0,1.0,[21. 21.],32,0.512,0.5359467000234872,0.6346821999177337,True,near-000,28,4,3,3.0,2,down,2,0
141,True,1.1531660000327975,800.0,50.0,33.0,10,0.16237109992653131,False,2,90,1.0,[21. 21.],12,0.192,0.1993003999814391,0.6035926998592913,True,near-160,28,1,1,0.75,1,down,4,0
142,True,1.4488433999940753,800.0,33.0,50.0,0,0.16237109992653131,False,3,0,1.0,[21. 21.],16,0.256,0.2597228998783976,0.9706376998219639,False,near-rndm,28,1,0,0.75,1,down,16,0
143,True,1.6007246999070048,800.0,50.0,33.0,5,0.08284420007839799,False,2,0,1.0,[21. 21.],71,1.1360000000000001,1.1431901000905782,0.5170355001464486,True,near-080,28,5,5,3.75,2,down,1,0
144,False,3.017473799875006,800.0,100.0,50.0,0,0.08284420007839799,False,1,90,1.0,[21. 21.],32,0.512,0.5196122999768704,0.7257658001035452,True,near-rnd2,29,8,7,6.0,2,down,2,0
145,True,1.31778319994919,800.0,50.0,33.0,0,0.08284420007839799,False,2,90,1.0,[21. 21.],32,0.512,0.5749075000640005,0.40046300017274916,True,near-000,29,5,4,3.75,2,down,2,0
146,True,1.0288400000426918,800.0,50.0,33.0,5,0.08419929980300367,False,2,90,1.0,[21. 21.],71,1.1360000000000001,1.139406300149858,0.28980399994179606,True,near-080,29,6,6,4.5,2,down,1,0
147,True,1.4860964000690728,800.0,33.0,50.0,0,0.08419929980300367,False,3,90,1.0,[21. 21.],32,0.512,0.5251583999488503,0.46216419991105795,True,near-rnd2,29,8,7,6.0,2,down,2,0
148,True,1.3439249000512064,800.0,800.0,50.0,0,0.08419929980300367,False,0,90,1.0,[21. 21.],32,0.512,0.5148471998982131,0.36938720010221004,True,near-rndm,29,1,1,0.75,0.5,up,8,0
149,True,1.553902800194919,800.0,50.0,33.0,0,0.08419929980300367,False,2,0,1.0,[21. 21.],32,0.512,0.519562000175938,0.5673406000714749,True,near-000,30,6,5,4.5,2,down,2,0
150,True,1.105983299901709,800.0,50.0,33.0,10,0.1620338000357151,False,2,0,1.0,[21. 21.],12,0.192,0.20025540003553033,0.6460875000339001,False,near-160,29,2,1,1.5,1,down,4,0
151,True,1.2902238999959081,800.0,33.0,50.0,0,0.1620338000357151,False,3,90,1.0,[21. 21.],32,0.512,0.5148152001202106,0.481152500025928,True,near-rndm,30,2,2,1.5,1,up,8,0
152,True,1.2564500998705626,800.0,50.0,33.0,5,0.08369720005430281,False,2,90,1.0,[21. 21.],71,1.1360000000000001,1.1404796000570059,0.2632210000883788,True,near-080,30,7,7,5.25,2,down,1,0
153,True,1.3751761000603437,800.0,33.0,50.0,0,0.08369720005430281,False,3,90,1.0,[21. 21.],32,0.512,0.5132081999909133,0.5525962000247091,True,near-rnd2,30,9,8,6.75,2,down,2,1
154,True,1.1207057000137866,800.0,50.0,33.0,10,0.16366229997947812,False,2,0,1.0,[21. 21.],12,0.192,0.19832390011288226,0.4861874000634998,False,near-160,30,3,1,2.25,1,down,4,0
155,True,3.1151095998939127,800.0,50.0,33.0,0,0.16366229997947812,False,2,0,1.0,[21. 21.],32,0.512,0.5195673999842256,0.3757666000165045,False,near-000,31,7,5,5.25,2,down,2,0
156,True,1.2782268999144435,800.0,800.0,50.0,0,0.16366229997947812,False,0,90,1.0,[21. 21.],32,0.512,0.5175624000839889,0.3870431000832468,True,near-rndm,31,3,3,2.25,1,up,8,0
157,True,1.0121509998571128,800.0,50.0,33.0,10,0.16282079997472465,False,2,0,1.0,[21. 21.],16,0.256,0.26233789999969304,0.7511046999134123,False,near-160,31,1,0,0.75,1,up,2,0
158,True,1.3208989000413567,800.0,33.0,50.0,0,0.16282079997472465,False,3,0,1.0,[21. 21.],32,0.512,0.5140990000218153,0.580034599872306,False,near-rnd2,31,10,8,7.5,2,down,2,1
159,True,1.1754968999885023,800.0,50.0,33.0,0,0.16282079997472465,False,2,0,1.0,[21. 21.],32,0.512,0.5160709999036044,0.5897597000002861,True,near-000,32,8,6,6.0,2,down,2,0
160,True,1.5955560998991132,800.0,50.0,33.0,5,0.08390889992006123,False,2,90,1.0,[21. 21.],71,1.1360000000000001,1.1444141999818385,0.3262841999530792,True,near-080,31,8,8,6.0,2,down,1,0
161,True,1.4082653999794275,800.0,800.0,50.0,0,0.08390889992006123,False,0,90,1.0,[21. 21.],32,0.512,0.5156560000032187,0.4595586000941694,True,near-rnd2,32,11,9,8.25,2,down,2,1
162,True,1.0293081998825073,800.0,50.0,33.0,0,0.08390889992006123,False,2,90,1.0,[21. 21.],32,0.512,0.5158706000074744,0.4563200999982655,True,near-000,33,9,7,6.75,2,down,2,1
163,True,1.4257765000220388,800.0,50.0,33.0,5,0.08346710004843771,False,2,0,1.0,[21. 21.],71,1.1360000000000001,1.1431881999596953,0.294309200020507,True,near-080,32,9,9,6.75,2,down,1,1
164,True,1.6235363001469523,800.0,50.0,33.0,10,0.16268620011396706,False,2,0,1.0,[21. 21.],16,0.256,0.26271439995616674,0.8279355000704527,True,near-160,32,2,1,1.5,2,up,2,0
165,True,1.0082657998427749,800.0,33.0,50.0,0,0.16268620011396706,False,3,0,1.0,[21. 21.],32,0.512,0.514515700051561,0.6821395999286324,False,near-rndm,32,4,3,3.0,1,up,8,0
166,True,1.224380400031805,800.0,50.0,33.0,5,0.08285970008000731,False,2,90,1.0,[21. 21.],70,1.12,1.124753899872303,0.2530326000414789,True,near-080,33,1,1,0.75,2,down,1,0
167,True,1.6593687001150101,800.0,50.0,33.0,0,0.08285970008000731,False,2,0,1.0,[21. 21.],32,0.512,0.5184325999580324,0.6673107000533491,True,near-000,34,10,8,7.5,2,down,2,1
168,True,1.0381979001685977,800.0,50.0,33.0,10,0.16247780015692115,False,2,0,1.0,[21. 21.],16,0.256,0.2617597000207752,0.532563199987635,True,near-160,33,3,2,2.25,2,up,2,0
169,True,1.2693145000375807,800.0,33.0,50.0,0,0.16247780015692115,False,3,0,1.0,[21. 21.],32,0.512,0.5140627999790013,0.7206011000089347,True,near-rndm,33,5,4,3.75,1,up,8,0
170,True,0.9283628000412136,800.0,33.0,50.0,0,0.16247780015692115,False,3,0,1.0,[21. 21.],32,0.512,0.513980699935928,0.39495890005491674,True,near-rnd2,33,12,10,9.0,2,down,2,1
171,True,2.052123599918559,800.0,50.0,33.0,0,0.16247780015692115,False,2,90,1.0,[21. 21.],32,0.512,0.5182442001532763,0.45494010020047426,True,near-000,35,11,9,8.25,2,down,2,1
172,False,1.3775043999776244,800.0,100.0,50.0,0,0.16247780015692115,False,1,90,1.0,[21. 21.],32,0.512,0.5203425001818687,0.5828176999930292,True,near-rnd2,34,13,11,9.75,2,down,2,1
173,True,1.4793090999592096,800.0,50.0,33.0,10,0.20725869992747903,False,2,0,1.0,[21. 21.],16,0.256,0.2644931999966502,0.5018605999648571,True,near-160,34,4,3,3.0,2,up,2,0
174,True,1.2740378000307828,800.0,33.0,50.0,0,0.20725869992747903,False,3,0,1.0,[21. 21.],32,0.512,0.5151871999260038,0.5959354001097381,True,near-rndm,34,6,5,4.5,1,up,8,0
175,True,1.4809278999455273,800.0,50.0,33.0,5,0.08324609999544919,False,2,90,1.0,[21. 21.],70,1.12,1.1251346999779344,0.3349965999368578,True,near-080,34,2,2,1.5,3,down,1,0
176,True,1.6191382000688463,800.0,33.0,50.0,0,0.08324609999544919,False,3,90,1.0,[21. 21.],32,0.512,0.515273799886927,1.6550141000188887,True,near-rnd2,34,13,11,9.75,2,down,2,1
177,True,1.1809956000652164,800.0,50.0,33.0,10,0.16298680007457733,False,2,0,1.0,[21. 21.],16,0.256,0.2632503998465836,0.5418013001326472,True,near-160,35,5,4,3.75,2,up,2,0
178,True,1.837772199884057,800.0,50.0,33.0,5,0.08379559987224638,False,2,90,1.0,[21. 21.],70,1.12,1.123617900069803,0.3462685998529196,True,near-080,35,3,3,2.25,3,down,1,0
179,True,2.419591600075364,800.0,50.0,33.0,0,0.08379559987224638,False,2,90,1.0,[21. 21.],32,0.512,0.5181722000706941,0.38340940000489354,True,near-000,36,12,10,9.0,2,down,2,1
180,True,2.3880157000385225,800.0,33.0,50.0,0,0.08379559987224638,False,3,0,1.0,[21. 21.],32,0.512,0.5133082000538707,0.6338750999420881,False,near-rndm,35,7,5,5.25,1,up,8,0
181,True,1.580515000037849,800.0,50.0,33.0,0,0.08379559987224638,False,2,90,1.0,[21. 21.],32,0.512,0.5161649000365287,0.42338800011202693,True,near-000,37,13,11,9.75,2,down,2,1
182,True,1.0024201001506299,800.0,50.0,33.0,5,0.08295869990251958,False,2,90,1.0,[21. 21.],70,1.12,1.1246377998031676,0.15548380021937191,False,near-080,36,4,3,3.0,3,down,1,0
183,True,1.226879599969834,800.0,800.0,50.0,0,0.08295869990251958,False,0,0,1.0,[21. 21.],32,0.512,0.5159155000001192,0.45995099982246757,True,near-rnd2,35,14,12,10.5,2,down,2,1
184,True,0.8985341000370681,800.0,50.0,33.0,10,0.1631276998668909,False,2,0,1.0,[21. 21.],16,0.256,0.2610744000412524,0.6331384000368416,True,near-160,36,6,5,4.5,2,up,2,0
185,True,1.4271112000569701,800.0,800.0,50.0,0,0.1631276998668909,False,0,0,1.0,[21. 21.],32,0.512,0.5162409001495689,0.48527760012075305,True,near-rndm,36,8,6,6.0,1,up,8,0
186,True,0.9789501999039203,800.0,800.0,50.0,0,0.1631276998668909,False,0,0,1.0,[21. 21.],32,0.512,0.5156666999682784,0.41143550002016127,True,near-rndm,37,9,7,6.75,1,up,8,1
187,True,1.360503900097683,800.0,800.0,50.0,0,0.1631276998668909,False,0,0,1.0,[21. 21.],32,0.512,0.5173164999578148,0.33471490000374615,True,near-rnd2,36,15,13,11.25,2,down,2,1
188,True,0.8520088999066502,800.0,50.0,33.0,10,0.1628960999660194,False,2,0,1.0,[21. 21.],16,0.256,0.2597409998998046,0.5431248999666423,True,near-160,37,7,6,5.25,2,up,2,0
189,True,2.1705086999572814,800.0,50.0,33.0,0,0.1628960999660194,False,2,90,1.0,[21. 21.],32,0.512,0.5164717000443488,0.5463409000076354,True,near-000,38,14,12,10.5,2,down,2,1
190,True,1.1338134000543505,800.0,50.0,33.0,5,0.0830339000094682,False,2,90,1.0,[21. 21.],70,1.12,1.1268689997959882,0.3858656999655068,True,near-080,37,5,4,3.75,3,down,1,0
191,True,1.353045600000769,800.0,33.0,50.0,0,0.0830339000094682,False,3,0,1.0,[21. 21.],32,0.512,0.5136585000436753,0.4468502001836896,False,near-rnd2,37,16,13,12.0,2,down,2,1
192,True,1.386036500101909,800.0,50.0,33.0,10,0.18668859987519681,False,2,0,1.0,[21. 21.],16,0.256,0.2631814999040216,0.4597127002198249,True,near-160,38,8,7,6.0,2,up,2,0
193,True,1.2369853002019227,800.0,50.0,33.0,5,0.08416510000824928,False,2,0,1.0,[21. 21.],70,1.12,1.1241216000635177,0.24664180004037917,True,near-080,38,6,5,4.5,3,down,1,0
194,True,1.0721538998186588,800.0,800.0,50.0,0,0.08416510000824928,False,0,90,1.0,[21. 21.],32,0.512,0.5585993998683989,0.38829290005378425,True,near-rndm,38,10,8,7.5,1,up,8,1
195,True,1.1170524000190198,800.0,50.0,33.0,0,0.08416510000824928,False,2,90,1.0,[21. 21.],32,0.512,0.5175751999486238,0.44648360018618405,True,near-000,39,15,13,11.25,2,down,2,1
196,True,0.9726144000887871,800.0,50.0,33.0,5,0.08207460003904998,False,2,0,1.0,[21. 21.],70,1.12,1.1262539001181722,0.3047235000412911,True,near-080,39,7,6,5.25,3,down,1,0
197,True,0.9792855998966843,800.0,33.0,50.0,0,0.08207460003904998,False,3,0,1.0,[21. 21.],32,0.512,0.5156376000959426,0.6203271998092532,True,near-rnd2,38,17,14,12.75,2,down,2,2
198,True,0.8762352999765426,800.0,50.0,33.0,0,0.08207460003904998,False,2,0,1.0,[21. 21.],32,0.512,0.5183550000656396,0.4307067000772804,True,near-000,40,16,14,12.0,2,down,2,1
199,True,1.0027950999792665,800.0,50.0,33.0,10,0.1632644000928849,False,2,0,1.0,[21. 21.],16,0.256,0.26515579991973937,0.4331035998184234,True,near-160,39,9,8,6.75,2,up,2,1
200,True,0.9148979999590665,800.0,33.0,50.0,0,0.1632644000928849,False,3,90,1.0,[21. 21.],32,0.512,0.5145542998798192,0.5853353999555111,True,near-rndm,39,11,9,8.25,1,up,8,1
201,True,1.248638499993831,800.0,50.0,33.0,5,0.0822012999560684,False,2,90,1.0,[21. 21.],70,1.12,1.1265338000375777,0.2900555001106113,True,near-080,40,8,7,6.0,3,down,1,0
202,True,1.0061077000573277,800.0,33.0,50.0,0,0.0822012999560684,False,3,0,1.0,[21. 21.],32,0.512,0.5149664001073688,0.7022214999888092,True,near-rnd2,39,18,15,13.5,2,down,2,2
203,True,0.9923356000799686,800.0,100.0,50.0,0,0.0822012999560684,False,1,90,1.0,[21. 21.],32,0.512,0.520322399912402,0.3657251999247819,True,near-rndm,40,12,10,9.0,1,up,8,1
204,True,1.1658904000651091,800.0,50.0,33.0,10,0.16424710000865161,False,2,90,1.0,[21. 21.],16,0.256,0.2619707998819649,0.46241339994594455,True,near-160,40,10,9,7.5,2,up,2,1
205,True,1.4199037000071257,800.0,50.0,33.0,0,0.16424710000865161,False,2,0,1.0,[21. 21.],32,0.512,0.5178655001800507,0.5667022000998259,False,near-000,41,17,14,12.75,2,down,2,2
206,True,0.8267888999544084,800.0,50.0,33.0,10,0.16314680012874305,False,2,0,1.0,[21. 21.],16,0.256,0.2606758999172598,0.5771227998193353,False,near-160,41,11,9,8.25,2,up,2,1
207,True,1.8763208999298513,800.0,800.0,50.0,0,0.16314680012874305,False,0,90,1.0,[21. 21.],32,0.512,0.5162823998834938,0.4185107999946922,True,near-rndm,41,13,11,9.75,1,up,8,1
208,True,0.9999916998203844,800.0,800.0,50.0,0,0.16314680012874305,False,0,90,1.0,[21. 21.],32,0.512,0.5158247000072151,0.3988946999888867,True,near-rnd2,40,19,16,14.25,2,down,2,2
209,True,2.8330015998799354,800.0,50.0,33.0,0,0.16314680012874305,False,2,0,1.0,[21. 21.],32,0.512,0.5175228998996317,0.38526100013405085,False,near-000,42,18,14,13.5,2,down,2,2
210,True,1.5022497999016196,800.0,33.0,50.0,0,0.16314680012874305,False,3,90,1.0,[21. 21.],28,0.448,0.4513475000858307,0.4593757002148777,True,near-rndm,42,1,1,0.75,1,down,2,0
211,True,1.6695482002105564,800.0,50.0,33.0,0,0.16314680012874305,False,2,0,1.0,[21. 21.],32,0.512,0.5215346999466419,0.6382177001796663,True,near-000,43,19,15,14.25,2,down,2,2
212,False,1.897954200161621,800.0,50.0,33.0,10,0.1622791001573205,False,2,0,1.0,[21. 21.],16,0.256,0.2637898998800665,0.6326896001119167,False,near-160,42,12,9,9.0,2,up,2,1
213,True,1.1721878999378532,800.0,33.0,50.0,0,0.1622791001573205,False,3,90,1.0,[21. 21.],32,0.512,0.51506910007447,0.43924219999462366,True,near-rnd2,41,20,17,15.0,2,down,2,2
214,True,1.174394299974665,800.0,50.0,33.0,0,0.1622791001573205,False,2,0,1.0,[21. 21.],32,0.512,0.5206931999418885,0.6260174000635743,False,near-000,44,20,15,15.0,2,down,2,2
215,True,1.2172532000113279,800.0,50.0,33.0,10,0.16694010002538562,False,2,90,1.0,[21. 21.],16,0.256,0.26421860000118613,0.615649500163272,True,near-160,42,12,10,9.0,2,up,2,1
216,True,1.5716258001048118,800.0,33.0,50.0,0,0.16694010002538562,False,3,90,1.0,[21. 21.],28,0.448,0.450264299986884,0.5517549000214785,True,near-rndm,43,2,2,1.5,2,down,2,0
217,True,0.9848849999252707,800.0,100.0,50.0,0,0.16694010002538562,False,1,90,1.0,[21. 21.],32,0.512,0.5184855998959392,0.4028988000936806,True,near-rnd2,42,21,18,15.75,2,down,2,2
218,True,1.1246488001197577,800.0,50.0,33.0,10,0.1636382001452148,False,2,90,1.0,[21. 21.],16,0.256,0.26314210006967187,0.4601268998812884,True,near-160,43,13,11,9.75,2,up,2,1
219,True,1.0093979998491704,800.0,33.0,50.0,0,0.1636382001452148,False,3,90,1.0,[21. 21.],31,0.496,0.4979776998516172,0.39444259996525943,True,near-rnd2,43,1,1,0.75,2,down,1,0
220,True,1.2536945000756532,800.0,50.0,33.0,0,0.1636382001452148,False,2,90,1.0,[21. 21.],32,0.512,0.5204266000073403,0.3641251001972705,True,near-000,45,21,16,15.75,2,down,2,2
221,True,1.502713300054893,800.0,800.0,50.0,0,0.1636382001452148,False,0,0,1.0,[21. 21.],28,0.448,0.45632540015503764,0.444419699953869,True,near-rndm,44,3,3,2.25,2,down,2,0
222,True,2.175700700143352,800.0,50.0,33.0,10,0.1645237000193447,False,2,90,1.0,[21. 21.],16,0.256,0.2626968000549823,0.44669590005651116,True,near-160,44,14,12,10.5,2,up,2,1
223,True,1.1023176000453532,800.0,100.0,50.0,0,0.1645237000193447,False,1,90,1.0,[21. 21.],28,0.448,0.4552345999982208,0.38207449996843934,True,near-rndm,45,4,4,3.0,2,down,2,0
224,False,1.0906332000158727,800.0,100.0,50.0,0,0.1645237000193447,False,1,0,1.0,[21. 21.],31,0.496,0.5052499000448734,0.3535168000962585,True,near-rnd2,44,2,2,1.5,3,down,1,0
225,True,1.1508402000181377,800.0,50.0,33.0,0,0.1645237000193447,False,2,90,1.0,[21. 21.],32,0.512,0.5217377000954002,0.4585252997931093,True,near-000,46,22,17,16.5,2,down,2,2
226,True,2.4634946000296623,800.0,50.0,33.0,10,0.1621006999630481,False,2,0,1.0,[21. 21.],16,0.256,0.33880430017597973,0.5062012998387218,True,near-160,45,15,13,11.25,2,up,2,1
227,True,1.065015000058338,800.0,50.0,33.0,0,0.1621006999630481,False,2,0,1.0,[21. 21.],32,0.512,0.5213411999866366,0.6949410000815988,True,near-000,47,23,18,17.25,2,down,2,2
228,True,0.9904926000162959,800.0,800.0,50.0,0,0.1621006999630481,False,0,90,1.0,[21. 21.],28,0.448,0.45369200012646616,0.3892918999772519,True,near-rndm,46,5,5,3.75,2,down,2,0
229,True,0.8701848001219332,800.0,33.0,50.0,0,0.1621006999630481,False,3,0,1.0,[21. 21.],31,0.496,0.49958970001898706,0.7803263000678271,False,near-rnd2,44,2,1,1.5,3,down,1,0
230,True,1.0522787999361753,800.0,50.0,33.0,10,0.16298220003955066,False,2,0,1.0,[21. 21.],16,0.256,0.26452849991619587,0.44238329981453717,False,near-160,46,16,13,12.0,2,up,2,1
231,True,0.9468668999616057,800.0,800.0,50.0,0,0.16298220003955066,False,0,90,1.0,[21. 21.],31,0.496,0.5027709999121726,0.3449792000465095,True,near-rnd2,45,3,2,2.25,3,down,1,0
232,True,1.2517650998197496,800.0,100.0,50.0,0,0.16298220003955066,False,1,90,1.0,[21. 21.],28,0.448,0.4540322001557797,0.3275021000299603,True,near-rndm,47,6,6,4.5,2,down,2,0
233,True,1.2451659000944346,800.0,50.0,33.0,0,0.16298220003955066,False,2,0,1.0,[21. 21.],32,0.512,0.5211119998712093,0.6429761999752373,True,near-000,48,24,19,18.0,2,down,2,2
234,True,2.1174187001306564,800.0,33.0,50.0,0,0.16298220003955066,False,3,90,1.0,[21. 21.],31,0.496,0.4995200999546796,0.4113080999813974,True,near-rnd2,46,4,3,3.0,3,down,1,0
235,True,1.1588614999782294,800.0,50.0,33.0,10,0.16338899987749755,False,2,90,1.0,[21. 21.],16,0.256,0.2639969000592828,0.43105569994077086,True,near-160,47,17,14,12.75,2,up,2,2
236,True,1.2068252998869866,800.0,800.0,50.0,0,0.16338899987749755,False,0,0,1.0,[21. 21.],28,0.448,0.45341639989055693,0.373369799926877,True,near-rndm,48,7,7,5.25,2,down,2,0
237,True,1.1431540998164564,800.0,50.0,33.0,10,0.16227310011163354,False,2,0,1.0,[21. 21.],16,0.256,0.26440200000070035,0.44653300009667873,True,near-160,48,18,15,13.5,2,up,2,2
238,True,2.486987999873236,800.0,100.0,50.0,0,0.16227310011163354,False,1,0,1.0,[21. 21.],31,0.496,0.5040814001113176,0.240266100037843,True,near-rnd2,47,5,4,3.75,3,down,1,0
239,True,1.2820966998115182,800.0,800.0,50.0,0,0.16227310011163354,False,0,0,1.0,[21. 21.],28,0.448,0.45229960000142455,0.37150230002589524,True,near-rndm,49,8,8,6.0,2,down,2,0
240,True,1.011074700159952,800.0,800.0,50.0,0,0.16227310011163354,False,0,0,1.0,[21. 21.],28,0.448,0.45507810008712113,0.2623266000300646,True,near-rndm,50,9,9,6.75,2,down,2,1
241,True,0.8628372000530362,800.0,50.0,33.0,10,0.16245960001833737,False,2,0,1.0,[21. 21.],16,0.256,0.2631628999952227,0.42905030003748834,True,near-160,49,19,16,14.25,2,up,2,2
242,True,1.2757363999262452,800.0,100.0,50.0,0,0.16245960001833737,False,1,0,1.0,[21. 21.],31,0.496,0.5429465000052005,0.1184055998455733,True,near-rnd2,48,6,5,4.5,3,down,1,0
243,True,1.1638511000201106,800.0,50.0,33.0,10,0.16133520007133484,False,2,0,1.0,[21. 21.],16,0.256,0.26533870003186166,0.40392219997011125,True,near-160,50,20,17,15.0,2,up,2,2
244,True,1.0959749999456108,800.0,800.0,50.0,0,0.16133520007133484,False,0,0,1.0,[21. 21.],27,0.432,0.4394766001496464,0.37630510004237294,True,near-rndm,51,1,1,0.75,2,down,1,0
245,True,0.7206109999679029,800.0,800.0,50.0,0,0.16133520007133484,False,0,0,1.0,[21. 21.],31,0.496,0.5029992000199854,1.0008388999849558,True,near-rnd2,49,7,6,5.25,3,down,1,0
246,True,0.965184000087902,800.0,100.0,50.0,0,0.16133520007133484,False,1,90,1.0,[21. 21.],27,0.432,0.4388081000652164,0.35886380006559193,True,near-rndm,52,2,2,1.5,2,down,1,0
247,True,1.4460024000145495,800.0,50.0,33.0,10,0.16397539991885424,False,2,90,1.0,[21. 21.],16,0.256,0.3097405000589788,0.3749587000347674,True,near-160,51,21,18,15.75,2,up,2,2
