trial,primeCorrect,primeTime,primeDepth,stimDepth,extraDepth,driveFrames,nearToFar,diopters,direction,size,intensity,extraLatency,mainLatency,totalLatency,responseTime,correct,caseLabel,caseTrial,trialsAtStep,stepCorrect,expected,w,direction,stepsize,stepChange
1,True,16.931375599990133,800.0,50.0,33.0,10,False,2,start,0.25,60,0.18104830000083894,1.0235491000057664,1.2045974000066053,0.24761059999582358,True,near-160,1,1,1,0.625,0.5,start,16,0
2,True,2.1928706000035163,800.0,100.0,50.0,0,False,1,start,0.25,60,0,1.0075061000243295,1.0075061000243295,0.32635909999953583,True,near-rnd2,1,1,1,0.625,0.5,start,16,0
3,True,1.5232303000229876,800.0,33.0,50.0,0,False,3,start,0.25,60,0,0.981343299994478,0.981343299994478,0.41482340000220574,True,near-rnd3,1,1,1,0.625,0.5,start,16,0
4,True,2.3645382999966387,800.0,50.0,33.0,15,False,2,start,0.25,60,0.2533771999878809,1.0003834000090137,1.2537605999968946,0.31652609998127446,True,near-240,1,1,1,0.625,0.5,start,16,0
5,True,1.6485872000048403,800.0,800.0,50.0,0,False,0,start,0.25,60,0,0.9938827000150923,0.9938827000150923,0.4201220999821089,True,near-rndm,1,1,1,0.625,0.5,start,16,0
6,True,1.3283233999973163,800.0,50.0,33.0,5,False,2,start,0.25,60,0.08665149999433197,1.0130040999792982,1.0996555999736302,0.271316400001524,True,near-080,1,1,1,0.625,0.5,start,16,0
7,True,2.2229249000083655,800.0,50.0,33.0,0,False,2,start,0.25,60,0,0.9966989999811631,0.9966989999811631,0.23345689999405295,True,near-000,1,1,1,0.625,0.5,start,16,0
8,True,1.8774858000106178,800.0,50.0,33.0,15,False,2,start,0.25,44,0.25092920000315644,0.8081814000033773,1.0591106000065338,0.3705352999968454,True,near-240,2,1,1,0.625,1.0,start,16,0
9,True,1.628484600019874,800.0,33.0,50.0,0,False,3,start,0.25,44,0,0.7264324999996461,0.7264324999996461,0.8132496000034735,False,near-rnd3,2,1,0,0.625,1.0,start,16,0
10,True,6.591314300021622,800.0,50.0,33.0,0,False,2,start,0.25,44,0,0.742182000016328,0.742182000016328,0.35151830001268536,True,near-000,2,1,1,0.625,1.0,start,16,0
11,True,1.0651945999998134,800.0,800.0,50.0,0,False,0,start,0.25,44,0,0.7271084999956656,0.7271084999956656,0.42738269999972545,True,near-rndm,2,1,1,0.625,1.0,start,16,0
12,True,1.9498159000067972,800.0,50.0,33.0,10,False,2,start,0.25,44,0.1714291999815032,0.7560940999828745,0.9275232999643777,0.3353939999942668,True,near-160,2,1,1,0.625,1.0,start,16,0
13,True,1.5992517000122461,800.0,50.0,33.0,5,False,2,start,0.25,44,0.09283599999616854,0.7443233000230975,0.8371593000192661,0.5331571999995504,True,near-080,2,1,1,0.625,1.0,start,16,0
14,True,1.875078899989603,800.0,100.0,50.0,0,False,1,start,0.25,44,0,0.7438665000081528,0.7438665000081528,0.3184453000139911,True,near-rnd2,2,1,1,0.625,1.0,start,16,0
15,True,1.2960961000062525,800.0,50.0,33.0,0,False,2,start,0.25,28,0,0.4884425000054762,0.4884425000054762,0.6941820000065491,True,near-000,3,1,1,0.625,1.0,start,16,0
16,True,2.336060700006783,800.0,100.0,50.0,0,False,1,start,0.25,28,0,0.4927179999940563,0.4927179999940563,0.44584100000793114,True,near-rnd2,3,1,1,0.625,1.0,start,16,0
17,True,1.217168400005903,800.0,50.0,33.0,15,False,2,start,0.25,28,0.2488821999868378,0.48555990000022575,0.7344420999870636,0.5356203999835998,True,near-240,3,1,1,0.625,1.0,start,16,0
18,True,1.2704773000150453,800.0,50.0,33.0,5,False,2,start,0.25,28,0.09695920001831837,0.486253899987787,0.5832131000061054,0.6116350000083912,True,near-080,3,1,1,0.625,1.0,start,16,0
19,True,2.3849484999955166,800.0,50.0,33.0,10,False,2,start,0.25,28,0.16803559998515993,0.4948238000215497,0.6628594000067096,0.43147619999945164,True,near-160,3,1,1,0.625,1.0,start,16,0
20,True,1.4970598999934737,800.0,33.0,50.0,0,False,3,start,0.25,44,0,0.7239263000083156,0.7239263000083156,0.9162122999841813,False,near-rnd3,3,2,0,1.25,1.0,start,16,0
21,True,2.314257100020768,800.0,800.0,50.0,0,False,0,start,0.25,28,0,0.480075500003295,0.480075500003295,0.516904699994484,True,near-rndm,3,1,1,0.625,1.0,start,16,0
22,True,1.1668977000226732,800.0,50.0,33.0,10,False,2,start,0.25,12,0.1665215000102762,0.2424466999946162,0.4089682000048924,1.2704633999965154,True,near-160,4,1,1,0.625,0.5,start,16,0
23,True,3.7851860000228044,800.0,50.0,33.0,5,False,2,start,0.25,12,0.0891643000068143,0.23040579998632893,0.31957009999314323,1.1572828000062145,True,near-080,4,1,1,0.625,0.5,start,16,0
24,True,1.5907531999982893,800.0,50.0,33.0,0,False,2,start,0.25,12,0,0.22978010002407245,0.22978010002407245,0.8674299000122119,False,near-000,4,1,0,0.625,0.5,start,16,0
25,True,2.1487472000007983,800.0,33.0,50.0,0,False,3,up,0.25,60,0,0.9846102999872528,0.9846102999872528,0.3672684000048321,True,near-rnd3,4,1,1,0.625,0.5,up,16,0
26,True,25.371130800020183,800.0,50.0,33.0,15,False,2,start,0.25,12,0.2475378999952227,0.2357322000025306,0.4832700999977533,1.019918099977076,True,near-240,4,1,1,0.625,0.5,start,16,0
27,True,2.268594799999846,800.0,100.0,50.0,0,False,1,start,0.25,12,0,0.22770970000419766,0.22770970000419766,0.8512203000136651,True,near-rnd2,4,1,1,0.625,0.5,start,16,0
28,True,1.1957015999942087,800.0,800.0,50.0,0,False,0,start,0.25,12,0,0.23012230001040734,0.23012230001040734,0.5835609999776352,True,near-rndm,4,1,1,0.625,0.5,start,16,0
29,True,2.028882899991004,800.0,800.0,50.0,0,False,0,start,0.25,0,0,0.02690590001293458,0.02690590001293458,1.1199416999879759,False,near-rndm,5,1,0,0.625,0.5,start,16,0
30,True,2.2663559000066016,800.0,100.0,50.0,0,False,1,start,0.25,0,0,0.03923730002134107,0.03923730002134107,1.015462600014871,True,near-rnd2,5,1,1,0.625,0.5,start,16,0
31,True,1.5701984000043012,800.0,50.0,33.0,10,False,2,start,0.25,0,0.17336950000026263,0.03835119999712333,0.21172069999738596,1.8911769000114873,False,near-160,5,1,0,0.625,0.5,start,16,0
32,True,1.5557677000178955,800.0,50.0,33.0,15,False,2,start,0.25,0,0.247698399994988,0.03583680000156164,0.28353519999654964,1.2669773999950849,True,near-240,5,1,1,0.625,0.5,start,16,0
33,True,3.1336909999954514,800.0,33.0,50.0,0,False,3,up,0.25,60,0,0.9767389000044204,0.9767389000044204,0.43520300000091083,True,near-rnd3,5,2,2,1.25,1.0,up,16,0
34,True,3.1719490000104997,800.0,50.0,33.0,0,False,2,up,0.25,28,0,0.4840085000032559,0.4840085000032559,0.7704116999811959,True,near-000,5,1,1,0.625,0.5,up,16,0
35,True,1.838632700004382,800.0,50.0,33.0,5,False,2,start,0.25,0,0.09415640000952408,0.036713600013172254,0.13087000002269633,1.4768005999794696,False,near-080,5,1,0,0.625,0.5,start,16,0
36,True,2.9140529000142124,800.0,100.0,50.0,0,False,1,start,0.25,0,0,0.03838250000262633,0.03838250000262633,1.1186471999972127,False,near-rnd2,6,1,0,0.625,0.5,start,16,0
37,True,2.7550678999978118,800.0,800.0,50.0,0,False,0,up,0.25,16,0,0.28258219998679124,0.28258219998679124,0.5874198999954388,True,near-rndm,6,1,1,0.625,0.5,up,16,0
38,True,2.296371500007808,800.0,50.0,33.0,0,False,2,up,0.25,28,0,0.4880985000054352,0.4880985000054352,0.4540131000103429,True,near-000,6,2,2,1.25,1.0,up,16,0
39,True,1.526713800005382,800.0,33.0,50.0,0,False,3,up,0.25,60,0,0.9813944000052288,0.9813944000052288,0.46143880000454374,True,near-rnd3,6,3,3,1.875,1.0,up,16,0
40,True,1.9757394999905955,800.0,50.0,33.0,15,False,2,start,0.25,0,0.24869430001126602,0.0390907000110019,0.2877850000222679,1.666246599983424,True,near-240,6,1,1,0.625,0.5,start,16,0
41,True,1.5902824000222608,800.0,50.0,33.0,5,False,2,up,0.25,16,0.09496990000479855,0.3023754000023473,0.39734530000714585,0.7251692000136245,True,near-080,6,1,1,0.625,0.5,up,16,0
42,True,1.6304716000158805,800.0,50.0,33.0,10,False,2,up,0.25,16,0.17146410001441836,0.2968016999948304,0.4682658000092488,0.6004760999931023,True,near-160,6,1,1,0.625,0.5,up,16,0
43,True,1.9811516999907326,800.0,50.0,33.0,5,False,2,up,0.25,16,0.08939390000887215,0.2957083999936003,0.3851023000024725,0.723456100007752,True,near-080,7,2,2,1.25,1.0,up,16,0
44,True,1.2132455999962986,800.0,800.0,50.0,0,False,0,up,0.25,16,0,0.2797749000019394,0.2797749000019394,0.5868933000019751,True,near-rndm,7,2,2,1.25,1.0,up,16,0
45,True,1.2843655000033323,800.0,50.0,33.0,10,False,2,up,0.25,16,0.17469260000507347,0.3081597000127658,0.4828523000178393,0.5611602999852039,True,near-160,7,2,2,1.25,1.0,up,16,0
46,True,1.4464939000026789,800.0,50.0,33.0,15,False,2,start,0.25,0,0.25059119999059476,0.03804949999903329,0.28864069998962805,1.3297057999880053,True,near-240,7,1,1,0.625,0.5,start,16,0
47,True,1.2978296999935992,800.0,50.0,33.0,0,False,2,up,0.25,28,0,0.4849952999793459,0.4849952999793459,0.4972651000134647,True,near-000,7,3,3,1.875,1.0,up,16,0
48,True,1.7292873999977019,800.0,33.0,50.0,0,False,3,down,0.25,44,0,0.7278575999953318,0.7278575999953318,0.5582464000035543,True,near-rnd3,7,1,1,0.625,0.5,down,8,0
49,True,3.2812418999965303,800.0,100.0,50.0,0,False,1,up,0.25,16,0,0.42696199999772944,0.42696199999772944,0.516591999999946,True,near-rnd2,7,1,1,0.625,0.5,up,16,0
50,True,1.2652448999870103,800.0,50.0,33.0,0,False,2,down,0.25,12,0,0.22652980001294054,0.22652980001294054,0.7705644000088796,False,near-000,8,1,0,0.625,0.5,down,8,0
51,True,1.8555517999920994,800.0,50.0,33.0,15,False,2,start,0.25,0,0.27640850000898354,0.04114670000853948,0.317555200017523,0.9504442999896128,False,near-240,8,1,0,0.625,0.5,start,16,0
52,True,2.568012500007171,800.0,50.0,33.0,5,False,2,up,0.25,16,0.0925295999913942,0.30344599997624755,0.39597559996764176,0.6049693000095431,True,near-080,8,3,3,1.875,1.0,up,16,0
53,True,6.050804700003937,800.0,33.0,50.0,0,False,3,down,0.25,44,0,0.7218049999792129,0.7218049999792129,0.36772670000209473,True,near-rnd3,8,2,2,1.25,1,down,8,0
54,True,2.433514699980151,800.0,800.0,50.0,0,False,0,up,0.25,16,0,0.28200579999247566,0.28200579999247566,0.5453538000001572,True,near-rndm,8,3,3,1.875,1.0,up,16,0
55,True,2.7806163000059314,800.0,100.0,50.0,0,False,1,up,0.25,16,0,0.3039457999984734,0.3039457999984734,0.6551125000114553,True,near-rnd2,8,2,2,1.25,1.0,up,16,0
56,True,1.7946113999933004,800.0,50.0,33.0,10,False,2,up,0.25,16,0.1702579999982845,0.298287400015397,0.4685454000136815,0.6215343999792822,True,near-160,8,3,3,1.875,1.0,up,16,0
57,True,1.504783899988979,800.0,50.0,33.0,10,False,2,down,0.25,0,0.16971570000168867,0.03817640000488609,0.20789210000657476,1.0968758999952115,False,near-160,9,1,0,0.625,0.5,down,8,0
58,True,1.216455899993889,800.0,50.0,33.0,15,False,2,up,0.25,8,0.25077969999983907,0.17524320000666194,0.426022900006501,1.0543356999987736,False,near-240,9,1,0,0.625,0.5,up,8,0
59,True,1.6440975999867078,800.0,50.0,33.0,0,False,2,down,0.25,12,0,0.23447729999315925,0.23447729999315925,0.7263108000042848,False,near-000,9,2,0,1.25,1,down,8,0
60,True,1.61919840000337,800.0,50.0,33.0,5,False,2,down,0.25,0,0.09107760002370924,0.037992199999280274,0.1290698000229895,1.219834899995476,True,near-080,9,1,1,0.625,0.5,down,8,0
61,True,2.999091600009706,800.0,33.0,50.0,0,False,3,down,0.25,44,0,0.7248279000050388,0.7248279000050388,0.6601534000074025,True,near-rnd3,9,3,3,1.875,1,down,8,0
62,True,3.1374745999928564,800.0,800.0,50.0,0,False,0,down,0.25,0,0,0.024097599991364405,0.024097599991364405,1.1413608000148088,True,near-rndm,9,1,1,0.625,0.5,down,8,0
63,True,1.187126899982104,800.0,100.0,50.0,0,False,1,up,0.25,16,0,0.3000748000049498,0.3000748000049498,0.4257073000189848,True,near-rnd2,9,3,3,1.875,1.0,up,16,0
64,True,1.9955748999782372,800.0,100.0,50.0,0,False,1,down,0.25,0,0,0.03819560000556521,0.03819560000556521,1.0025347000046168,False,near-rnd2,10,1,0,0.625,0.5,down,8,0
65,True,1.0508712000155356,800.0,50.0,33.0,5,False,2,down,0.25,0,0.09423449999303557,0.03839440000592731,0.13262889999896288,1.046898800006602,False,near-080,10,2,1,1.25,1,down,8,0
66,True,1.453867399977753,800.0,33.0,50.0,0,False,3,down,0.25,36,0,0.5975170000165235,0.5975170000165235,0.47198189998744056,True,near-rnd3,10,1,1,0.625,1,down,8,0
67,True,1.5475315999938175,800.0,50.0,33.0,10,False,2,down,0.25,0,0.17394799998146482,0.03782339999452233,0.21177139997598715,0.8955792000051588,False,near-160,10,2,0,1.25,1,down,8,0
68,True,1.6802381000015885,800.0,50.0,33.0,15,False,2,up,0.25,8,0.25376829999731854,0.17487019998952746,0.428638499986846,0.657228900003247,True,near-240,10,2,1,1.25,1,up,8,0
69,True,1.7265191999904346,800.0,50.0,33.0,0,False,2,up,0.25,20,0,0.35756340000079945,0.35756340000079945,0.4904870000027586,False,near-000,10,1,0,0.625,1,up,4,0
70,False,1.2163528999953996,800.0,800.0,50.0,0,False,0,down,0.25,0,0,0.02150979998987168,0.02150979998987168,1.0332745999912731,True,near-rndm,10,2,2,1.25,1,down,8,0
71,True,1.5814777999767102,800.0,33.0,50.0,0,False,3,down,0.25,36,0,0.592603400000371,0.592603400000371,1.6670309000182897,False,near-rnd3,11,2,1,1.25,1,down,8,0
72,True,1.6567394000012428,800.0,50.0,33.0,10,False,2,up,0.25,8,0.17114970000693575,0.17303379997611046,0.3441834999830462,0.9146576000202913,False,near-160,11,1,0,0.625,1,up,4,0
73,True,1.3959956000035163,800.0,50.0,33.0,5,False,2,down,0.25,0,0.09306620000279509,0.03928220001398586,0.13234840001678094,2.0482880999916233,False,near-080,11,3,1,1.875,1,down,8,0
74,True,1.8889829000108875,800.0,50.0,33.0,15,False,2,up,0.25,8,0.24971840000944212,0.31949619998340495,0.5692145999928471,0.43903800001135096,True,near-240,11,3,2,1.875,1,up,8,0
75,True,4.238414399995236,800.0,50.0,33.0,0,False,2,up,0.25,20,0,0.3567581999814138,0.3567581999814138,0.7658588000049349,True,near-000,11,2,1,1.25,1,up,4,0
76,False,4.773378600017168,800.0,100.0,50.0,0,False,1,down,0.25,0,0,0.03666990000056103,0.03666990000056103,1.2814966999867465,True,near-rnd2,11,2,1,1.25,1,down,8,0
77,True,14.78438389999792,800.0,800.0,50.0,0,False,0,down,0.25,0,0,0.024883799982490018,0.024883799982490018,1.1794923999987077,False,near-rndm,10,2,1,1.25,1,down,8,0
78,True,1.5517441999982111,800.0,50.0,33.0,15,False,2,up,0.25,8,0.2502680000034161,0.23725440000998788,0.48752240001340397,0.6331789999967441,True,near-240,12,4,3,2.5,1,up,8,0
79,True,1.48955929998192,800.0,800.0,50.0,0,False,0,down,0.25,0,0,0.02246250002644956,0.02246250002644956,1.4846221999905538,False,near-rndm,11,3,1,1.875,1,down,8,0
80,True,1.6459820000163745,800.0,33.0,50.0,0,False,3,down,0.25,36,0,0.6010440000100061,0.6010440000100061,1.1646171000029426,False,near-rnd3,12,3,1,1.875,1,down,8,0
81,True,3.9279041000118013,800.0,50.0,33.0,0,False,2,up,0.25,20,0,0.35485140001401305,0.35485140001401305,0.6065229999949224,True,near-000,12,3,2,1.875,1,up,4,0
82,True,2.432981699996162,800.0,100.0,50.0,0,False,1,down,0.25,0,0,0.037953699997160584,0.037953699997160584,1.088310499995714,False,near-rnd2,11,2,0,1.25,1,down,8,0
83,True,3.0205152000125963,800.0,50.0,33.0,10,False,2,up,0.25,8,0.16756570001598448,0.1724411000031978,0.34000680001918226,0.5659966999955941,False,near-160,12,2,0,1.25,1,up,4,0
84,True,2.0490654000022914,800.0,50.0,33.0,5,False,2,down,0.25,0,0.08854210001300089,0.03675580001436174,0.12529790002736263,1.1446804000006523,True,near-080,12,4,2,2.5,1,down,8,0
85,True,2.022266899992246,800.0,800.0,50.0,0,False,0,down,0.25,0,0,0.026522899977862835,0.026522899977862835,0.8191689000232145,True,near-rndm,12,4,2,2.5,1,down,8,0
86,True,0.9649903999816161,800.0,50.0,33.0,15,False,2,up,0.25,8,0.2531707999878563,0.16986629998427816,0.42303709997213446,0.7127260999986902,True,near-240,13,5,4,3.125,1,up,8,0
87,True,2.653392600012012,800.0,100.0,50.0,0,False,1,up,0.25,8,0,0.18072579998988658,0.18072579998988658,0.6552974999940488,True,near-rnd2,12,1,1,0.625,1,up,4,0
88,True,2.892449699982535,800.0,50.0,33.0,5,False,2,down,0.25,0,0.0900981999875512,0.03835459999390878,0.12845279998145998,1.0175804999889806,True,near-080,13,5,3,3.125,1,down,8,0
89,True,1.6243001999973785,800.0,50.0,33.0,10,False,2,up,0.25,12,0.17062950000399724,0.24072669999441132,0.41135619999840856,0.708245399990119,True,near-160,13,1,1,0.625,1,up,4,0
90,True,1.5211243999947328,800.0,50.0,33.0,0,False,2,up,0.25,20,0,0.36351809999905527,0.36351809999905527,0.9564704000076745,False,near-000,13,4,2,2.5,1,up,4,0
91,True,1.3415929999900982,800.0,33.0,50.0,0,False,3,down,0.25,36,0,0.5978874999855179,0.5978874999855179,0.8850494000071194,False,near-rnd3,13,4,1,2.5,1,down,8,0
92,True,2.7115594999922905,800.0,800.0,50.0,0,False,0,down,0.25,0,0,0.02391770001850091,0.02391770001850091,0.7835066000116058,True,near-rndm,13,5,3,3.125,1,down,8,0
93,True,1.4501906000077724,800.0,100.0,50.0,0,False,1,up,0.25,8,0,0.17246889998205006,0.17246889998205006,0.8386447000084445,True,near-rnd2,13,2,2,1.25,1,up,4,0
94,True,1.5130405999952927,800.0,50.0,33.0,10,False,2,up,0.25,12,0.1694714000041131,0.23403759999200702,0.4035089999961201,0.7318749999976717,True,near-160,14,2,2,1.25,1,up,4,0
95,True,1.5293713999853935,800.0,50.0,33.0,0,False,2,up,0.25,20,0,0.4007357999798842,0.4007357999798842,1.1810222000058275,False,near-000,14,5,2,3.125,1,up,4,0
96,False,5.708205399976578,800.0,50.0,33.0,15,False,2,up,0.25,8,0.25347429999965243,0.1707483000063803,0.42422260000603274,0.7273366999870632,False,near-240,14,6,4,3.75,1,up,8,0
97,True,3.142011599993566,800.0,50.0,33.0,5,False,2,down,0.25,0,0.09171469998545945,0.037578600022243336,0.12929330000770278,0.7463987000228371,False,near-080,14,6,3,3.75,1,down,8,0
98,True,4.723335799993947,800.0,33.0,50.0,0,False,3,up,0.25,44,0,0.7274089000129607,0.7274089000129607,0.28149359999224544,True,near-rnd3,14,1,1,0.625,1,up,4,0
99,True,2.1381389999878593,800.0,50.0,33.0,15,False,2,up,0.25,8,0.24831779999658465,0.17146529999445193,0.4197830999910366,0.7615817000041716,True,near-240,14,6,5,3.75,1,up,8,0
100,True,1.4142791999911424,800.0,100.0,50.0,0,False,1,up,0.25,8,0,0.16547479998553172,0.16547479998553172,0.7555984999926295,True,near-rnd2,14,3,3,1.875,1,up,4,0
101,True,1.1034585000015795,800.0,50.0,33.0,0,False,2,up,0.25,24,0,0.4234110999968834,0.4234110999968834,0.6487367999798153,False,near-000,15,1,0,0.625,1,up,4,0
102,True,2.9492987999983598,800.0,50.0,33.0,10,False,2,up,0.25,12,0.17354079999495298,0.23228190001100302,0.405822700005956,0.5952407000004314,True,near-160,15,3,3,1.875,1,up,4,0
103,True,1.6803078000084497,800.0,33.0,50.0,0,False,3,up,0.25,44,0,0.7281237000133842,0.7281237000133842,0.7072321999876294,False,near-rnd3,15,2,1,1.25,1,up,4,0
104,True,3.9868559999740683,800.0,800.0,50.0,0,False,0,down,0.25,0,0,0.02363619999960065,0.02363619999960065,0.9674612999951933,False,near-rndm,14,6,3,3.75,1,down,8,0
105,True,3.228391399985412,800.0,50.0,33.0,5,False,2,down,0.25,0,0.09262979999766685,0.03974730000481941,0.13237710000248626,0.873247999988962,False,near-080,15,7,3,4.375,1,down,8,0
106,True,3.513252200005809,800.0,800.0,50.0,0,False,0,down,0.25,0,0,0.02508629998192191,0.02508629998192191,1.8680610000155866,True,near-rndm,15,7,4,4.375,1,down,8,0
107,True,3.626318700000411,800.0,33.0,50.0,0,False,3,up,0.25,44,0,0.726921699999366,0.726921699999366,0.5460743999865372,True,near-rnd3,16,3,2,1.875,1,up,4,0
108,True,16.322501199989347,800.0,50.0,33.0,10,False,2,down,0.25,8,0.1687810999865178,0.16739039999083616,0.33617149997735396,0.7594639000017196,True,near-160,16,1,1,0.625,1,down,2,0
109,True,1.741130999987945,800.0,50.0,33.0,0,False,2,up,0.25,24,0,0.4231634000025224,0.4231634000025224,0.9223277000128292,False,near-000,16,2,0,1.25,1,up,4,0
110,True,3.5499379000102635,800.0,100.0,50.0,0,False,1,down,0.25,4,0,0.10135289997560903,0.10135289997560903,0.6846152000071015,True,near-rnd2,15,1,1,0.625,1,down,2,0
111,True,6.425300000002608,800.0,50.0,33.0,5,False,2,up,0.25,8,0.09078239998780191,0.17017639998812228,0.2609587999759242,0.8828956999932416,False,near-080,16,1,0,0.625,1,up,4,0
112,True,1.7246354999952018,800.0,50.0,33.0,15,False,2,down,0.25,0,0.2523891000018921,0.03486689997953363,0.2872559999814257,0.8881713000009768,False,near-240,15,1,0,0.625,1,down,4,0
113,True,1.7064248000096995,800.0,33.0,50.0,0,False,3,up,0.25,44,0,0.7241609000193421,0.7241609000193421,0.5472301999980118,True,near-rnd3,17,4,3,2.5,1,up,4,0
114,True,4.173710700008087,800.0,50.0,33.0,0,False,2,up,0.25,28,0,0.4880256000033114,0.4880256000033114,0.4938462999998592,True,near-000,17,1,1,0.625,1,up,4,0
115,True,1.806234100018628,800.0,100.0,50.0,0,False,1,down,0.25,4,0,0.11309840000467375,0.11309840000467375,1.2531950999982655,True,near-rnd2,16,2,2,1.25,2,down,2,0
116,True,2.331973000022117,800.0,50.0,33.0,10,False,2,down,0.25,8,0.17073740001069382,0.17813469999236986,0.3488721000030637,0.8972475999908056,False,near-160,17,2,1,1.25,2,down,2,0
117,True,1.4187868000008166,800.0,50.0,33.0,15,False,2,down,0.25,0,0.24644610000541434,0.04432080002152361,0.29076690002693795,1.5836362999980338,False,near-240,16,2,0,1.25,1,down,4,0
118,True,0.9481746999954339,800.0,800.0,50.0,0,False,0,down,0.25,0,0,0.026834200019948184,0.026834200019948184,1.0541840999794658,False,near-rndm,16,8,4,5.0,1,down,8,0
119,True,1.7679823999933433,800.0,50.0,33.0,5,False,2,up,0.25,8,0.09330279999994673,0.1731951999827288,0.26649799998267554,0.6589762000076007,True,near-080,17,2,1,1.25,1,up,4,0
120,True,2.3637847999925725,800.0,800.0,50.0,0,False,0,down,0.25,0,0,0.02484190001268871,0.02484190001268871,0.9115968999976758,True,near-rndm,17,9,5,5.625,1,down,8,1
121,True,2.4780162000097334,800.0,50.0,33.0,10,False,2,down,0.25,8,0.17045999999390915,0.17919069997151382,0.349650699965423,0.9885737000149675,True,near-160,18,3,2,1.875,2,down,2,0
122,True,2.3041917999798898,800.0,50.0,33.0,5,False,2,up,0.25,8,0.09126659997855313,0.17201680000289343,0.26328339998144656,0.6815193000074942,True,near-080,18,3,2,1.875,1,up,4,0
123,True,1.6946415999846067,800.0,50.0,33.0,0,False,2,up,0.25,28,0,0.4858574999962002,0.4858574999962002,0.46620379999512807,True,near-000,18,2,2,1.25,1,up,4,0
124,True,2.2127638999954797,800.0,100.0,50.0,0,False,1,down,0.25,4,0,0.10911660001147538,0.10911660001147538,0.8851261000090744,False,near-rnd2,17,3,2,1.875,2,down,2,0
125,True,3.0281917999964207,800.0,33.0,50.0,0,False,3,up,0.25,44,0,0.7302337000146508,0.7302337000146508,1.091659300000174,True,near-rnd3,18,5,4,3.125,1,up,4,0
126,True,2.4615846000087913,800.0,50.0,33.0,15,False,2,up,0.25,4,0.25350580000667833,0.1035068999917712,0.35701269999844953,1.3849306000047363,False,near-240,17,1,0,0.625,1,up,2,0
127,True,1.719791500014253,800.0,50.0,33.0,5,False,2,up,0.25,8,0.09227880000253208,0.17446179999387823,0.2667405999964103,0.7809226000099443,False,near-080,19,4,2,2.5,1,up,4,0
128,True,4.480269799998496,800.0,100.0,50.0,0,False,1,down,0.25,4,0,0.10137479999684729,0.10137479999684729,1.3062673999811523,True,near-rnd2,18,4,3,2.5,2,down,2,0
129,True,2.5568169000034686,800.0,800.0,50.0,0,False,0,down,0.25,0,0,0.021617099991999567,0.021617099991999567,0.9454777000064496,False,near-rndm,18,10,5,6.25,1,down,8,1
130,True,1.7743101999803912,800.0,50.0,33.0,0,False,2,up,0.25,28,0,0.4903350000095088,0.4903350000095088,0.4385054000013042,True,near-000,19,3,3,1.875,1,up,4,0
131,True,2.128920699993614,800.0,50.0,33.0,15,False,2,up,0.25,4,0.24838479998288676,0.10568830001284368,0.35407309999573044,0.7391370000259485,False,near-240,18,2,0,1.25,2,up,2,0
132,True,3.0731145000027027,800.0,33.0,50.0,0,False,3,up,0.25,44,0,0.7264489000081085,0.7264489000081085,0.6434278999804519,True,near-rnd3,19,6,5,3.75,1,up,4,0
133,True,1.8904629000171553,800.0,50.0,33.0,10,False,2,down,0.25,8,0.17126649999408983,0.1739205000048969,0.3451869999989867,0.8625925999949686,True,near-160,19,4,3,2.5,2,down,2,0
134,True,2.504386299988255,800.0,50.0,33.0,5,False,2,up,0.25,8,0.09173049998935312,0.17205039999680594,0.26378089998615906,1.0331478999869432,False,near-080,20,5,2,3.125,1,up,4,0
135,True,2.1045560000056867,800.0,33.0,50.0,0,False,3,down,0.25,40,0,0.6591164999990724,0.6591164999990724,0.8452370000013616,False,near-rnd3,20,1,0,0.625,1,down,2,0
136,True,1.3914611000218429,800.0,800.0,50.0,0,False,0,up,0.25,4,0,0.09043110001948662,0.09043110001948662,0.8175066999974661,True,near-rndm,19,1,1,0.625,1,up,2,0
137,True,1.6244728000019677,800.0,100.0,50.0,0,False,1,down,0.25,4,0,0.10730440000770614,0.10730440000770614,0.7556784000189509,True,near-rnd2,19,5,4,3.125,2,down,2,0
138,True,1.548537499998929,800.0,50.0,33.0,10,False,2,down,0.25,8,0.17157960002077743,0.1758228999970015,0.34740250001777895,0.7693873999814969,True,near-160,20,5,4,3.125,2,down,2,0
139,True,2.4344847000029404,800.0,50.0,33.0,15,False,2,up,0.25,4,0.2526027999992948,0.10461380000924692,0.3572166000085417,0.8662387999938801,False,near-240,19,3,0,1.875,2,up,2,0
140,True,2.4936414000112563,800.0,50.0,33.0,0,False,2,down,0.25,24,0,0.4258842999988701,0.4258842999988701,0.6341044000000693,True,near-000,20,1,1,0.625,1,down,2,0
141,True,1.8350738000008278,800.0,50.0,33.0,10,False,2,down,0.25,8,0.1721339999930933,0.1731564000074286,0.3452904000005219,0.7705869000055827,True,near-160,21,6,5,3.75,2,down,2,0
142,True,1.4138755000021774,800.0,50.0,33.0,15,False,2,up,0.25,4,0.2469425000017509,0.10772319999523461,0.3546656999969855,0.9531743999978062,False,near-240,20,4,0,2.5,2,up,2,0
143,True,1.3180198000045493,800.0,50.0,33.0,5,False,2,up,0.25,12,0.0884821999934502,0.23110289999749511,0.3195850999909453,0.6426565999863669,False,near-080,21,1,0,0.625,1,up,4,0
144,True,4.359005899983458,800.0,50.0,33.0,0,False,2,down,0.25,24,0,0.42758359998697415,0.42758359998697415,0.7617895999865141,False,near-000,21,2,1,1.25,2,down,2,0
145,True,5.817976699996507,800.0,33.0,50.0,0,False,3,down,0.25,40,0,0.6664364000025671,0.6664364000025671,0.6769006999966223,True,near-rnd3,21,2,1,1.25,2,down,2,0
146,True,1.3341773999854922,800.0,800.0,50.0,0,False,0,up,0.25,4,0,0.09404780002660118,0.09404780002660118,0.5878066000004765,True,near-rndm,20,2,2,1.25,2,up,2,0
147,True,1.371139499999117,800.0,100.0,50.0,0,False,1,down,0.25,4,0,0.11442069997428916,0.11442069997428916,0.8841475000081118,False,near-rnd2,20,6,4,3.75,2,down,2,0
148,True,1.2961118000093848,800.0,50.0,33.0,0,False,2,down,0.25,24,0,0.42245360001106746,0.42245360001106746,0.464422499993816,True,near-000,22,3,2,1.875,2,down,2,0
149,True,2.9972532999818213,800.0,33.0,50.0,0,False,3,down,0.25,40,0,0.6627982000063639,0.6627982000063639,0.7477973999921232,False,near-rnd3,22,3,1,1.875,2,down,2,0
150,True,5.7006991999805905,800.0,50.0,33.0,5,False,2,up,0.25,12,0.08868069999152794,0.2336797000025399,0.32236039999406785,0.6969978999986779,False,near-080,22,2,0,1.25,1,up,4,0
151,True,1.0711874999979045,800.0,50.0,33.0,10,False,2,down,0.25,8,0.17171700001927093,0.16883619999862276,0.3405532000178937,0.5223140000016429,True,near-160,22,7,6,4.375,2,down,2,0
152,True,2.1764762999955565,800.0,800.0,50.0,0,False,0,up,0.25,4,0,0.09283959999447688,0.09283959999447688,1.0198757000034675,False,near-rndm,21,3,2,1.875,2,up,2,0
153,True,3.4975399000104517,800.0,50.0,33.0,15,False,2,up,0.25,6,0.2527057999977842,0.1471227000001818,0.399828499997966,0.8737662000057753,True,near-240,21,1,1,0.625,2,up,2,0
154,True,1.63386959998752,800.0,100.0,50.0,0,False,1,down,0.25,4,0,0.10341960002551787,0.10341960002551787,0.7716035000048578,False,near-rnd2,21,7,4,4.375,2,down,2,0
155,True,1.3802651999867521,800.0,50.0,33.0,10,False,2,down,0.25,8,0.16743790000327863,0.16721739998320118,0.3346552999864798,1.1096931000065524,False,near-160,23,8,6,5.0,2,down,2,0
156,True,1.656362400011858,800.0,33.0,50.0,0,False,3,down,0.25,40,0,0.6635578999994323,0.6635578999994323,0.9333114000037313,False,near-rnd3,23,4,1,2.5,2,down,2,0
157,True,3.784829099982744,800.0,50.0,33.0,0,False,2,down,0.25,24,0,0.4182810999918729,0.4182810999918729,0.7992834000033326,True,near-000,23,4,3,2.5,2,down,2,0
158,True,2.241712599992752,800.0,50.0,33.0,5,False,2,up,0.25,16,0.09295879999990575,0.2938611999852583,0.38681999998516403,0.6234341999806929,True,near-080,23,1,1,0.625,1,up,4,0
159,True,18.26206550002098,800.0,800.0,50.0,0,False,0,up,0.25,4,0,0.08767889998853207,0.08767889998853207,0.8044387999980245,True,near-rndm,22,4,3,2.5,2,up,2,0
160,True,2.9817981000232976,800.0,50.0,33.0,15,False,2,up,0.25,6,0.2547811999975238,0.14756670000497252,0.4023479000024963,0.8098828000074718,False,near-240,22,2,1,1.25,2,up,2,0
161,True,4.473423100018408,800.0,100.0,50.0,0,False,1,down,0.25,4,0,0.1055062000232283,0.1055062000232283,0.7487077000259887,False,near-rnd2,22,8,4,5.0,2,down,2,0
162,True,54.681368899997324,800.0,50.0,33.0,0,False,2,down,0.25,24,0,0.5156096999999136,0.5156096999999136,0.5338271000073291,True,near-000,24,5,4,3.125,2,down,2,0
163,True,2.275501500000246,800.0,800.0,50.0,0,False,0,up,0.25,4,0,0.09177119997912087,0.09177119997912087,0.7523799000191502,True,near-rndm,23,5,4,3.125,2,up,2,0
164,True,1.7660902999923564,800.0,50.0,33.0,5,False,2,up,0.25,16,0.08992379999835975,0.3041453000041656,0.3940691000025254,0.5369316999858711,True,near-080,24,2,2,1.25,1,up,4,0
165,True,1.1994332000031136,800.0,100.0,50.0,0,False,1,down,0.25,4,0,0.10395039999275468,0.10395039999275468,0.7635239000082947,False,near-rnd2,23,9,4,5.625,2,down,2,1
166,True,1.581128699996043,800.0,50.0,33.0,15,False,2,up,0.25,6,0.2547604000137653,0.13862330000847578,0.3933837000222411,1.0856951999885496,False,near-240,23,3,1,1.875,2,up,2,0
167,True,2.2896515000029467,800.0,33.0,50.0,0,False,3,down,0.25,40,0,0.6572100000048522,0.6572100000048522,0.3579102999938186,True,near-rnd3,24,5,2,3.125,2,down,2,0
168,True,3.81351460001315,800.0,50.0,33.0,10,False,2,down,0.25,8,0.17466839999542572,0.1755997999862302,0.3502681999816559,0.8004392000148073,True,near-160,24,9,7,5.625,2,down,2,1
169,True,1.9654155000171158,800.0,50.0,33.0,15,False,2,up,0.25,6,0.2523499999952037,0.14451569999800995,0.39686569999321364,0.7027548000041861,False,near-240,24,4,1,2.5,2,up,2,0
170,False,3.4412226999993436,800.0,50.0,33.0,10,False,2,down,0.25,8,0.17469009998603724,0.17243569999118336,0.3471257999772206,0.7489057999919169,False,near-160,25,10,7,6.25,2,down,2,1
171,True,1.9508802999916952,800.0,100.0,50.0,0,False,1,down,0.25,4,0,0.11509089998435229,0.11509089998435229,0.7730532000132371,False,near-rnd2,24,10,4,6.25,2,down,2,1
172,True,2.2914359999995213,800.0,50.0,33.0,0,False,2,down,0.25,24,0,0.4218628999951761,0.4218628999951761,0.4107518999953754,True,near-000,25,6,5,3.75,2,down,2,0
173,True,1.7492419000191148,800.0,50.0,33.0,5,False,2,up,0.25,16,0.09476050001103431,0.2946302999916952,0.3893908000027295,0.506377399986377,True,near-080,25,3,3,1.875,1,up,4,0
174,True,1.6074822999944445,800.0,800.0,50.0,0,False,0,up,0.25,4,0,0.09530770001583733,0.09530770001583733,2.3765907999768388,False,near-rndm,24,6,4,3.75,2,up,2,0
175,True,2.9044561999908183,800.0,33.0,50.0,0,False,3,down,0.25,40,0,0.663809499994386,0.663809499994386,0.8481499000045005,False,near-rnd3,25,6,2,3.75,2,down,2,0
176,True,4.48147249998874,800.0,33.0,50.0,0,False,3,down,0.25,40,0,0.6640189999889117,0.6640189999889117,0.4363774000084959,False,near-rnd3,26,7,2,4.375,2,down,2,0
177,True,2.0111691000056453,800.0,50.0,33.0,5,False,2,down,0.25,12,0.08816479999222793,0.23681579998810776,0.3249805999803357,0.7532153000065591,False,near-080,26,1,0,0.625,1,down,2,0
178,True,0.9985285000002477,800.0,50.0,33.0,10,False,2,down,0.25,8,0.23230319999856874,0.1760577000095509,0.40836090000811964,0.5543203999986872,True,near-160,25,10,8,6.25,2,down,2,1
179,True,2.8289108999888413,800.0,50.0,33.0,0,False,2,down,0.25,24,0,0.4243615999876056,0.4243615999876056,0.9757274999865331,False,near-000,26,7,5,4.375,2,down,2,0
180,True,1.499783400009619,800.0,50.0,33.0,15,False,2,up,0.25,6,0.25115939998067915,0.13705679998383857,0.3882161999645177,0.7797771999903489,False,near-240,25,5,1,3.125,2,up,2,0
181,True,1.1536874000157695,800.0,100.0,50.0,0,False,1,up,0.25,5,0,0.13112199999159202,0.13112199999159202,0.7046051000070293,True,near-rnd2,25,1,1,0.625,2,up,1,0
182,True,1.2875096999923699,800.0,800.0,50.0,0,False,0,up,0.25,4,0,0.08789360002265312,0.08789360002265312,0.9530037000076845,False,near-rndm,25,7,4,4.375,2,up,2,0
183,True,1.102588800014928,800.0,100.0,50.0,0,False,1,up,0.25,5,0,0.1231573999975808,0.1231573999975808,0.721394499996677,False,near-rnd2,26,2,1,1.25,3,up,1,0
184,True,5.14770950001548,800.0,50.0,33.0,5,False,2,down,0.25,12,0.09323430000222288,0.23203760001342744,0.3252719000156503,0.5916645999823231,True,near-080,27,2,1,1.25,2,down,2,0
185,True,5.59413269997458,800.0,800.0,50.0,0,False,0,up,0.25,4,0,0.09229139998205937,0.09229139998205937,0.6747153000032995,False,near-rndm,26,8,4,5.0,2,up,2,0
186,True,2.0616340000124183,800.0,50.0,33.0,15,False,2,up,0.25,8,0.25395000001299195,0.16895190000650473,0.4229019000194967,0.9218204000208061,False,near-240,26,1,0,0.625,2,up,2,0
187,True,6.296391500014579,800.0,50.0,33.0,0,False,2,down,0.25,24,0,0.42182630000752397,0.42182630000752397,0.40347839999594726,True,near-000,27,8,6,5.0,2,down,2,0
188,True,1.4232691999932285,800.0,50.0,33.0,10,False,2,down,0.25,8,0.17307679998339154,0.17404469999019057,0.3471214999735821,0.7555166000092868,False,near-160,26,11,8,6.875,2,down,2,1
189,True,5.309849000012036,800.0,33.0,50.0,0,False,3,up,0.25,42,0,0.6907879000063986,0.6907879000063986,0.9955531000159681,False,near-rnd3,27,1,0,0.625,2,up,1,0
190,True,129.35384169997997,800.0,33.0,50.0,0,False,3,up,0.25,42,0,0.6964456999849062,0.6964456999849062,0.7515854999946896,False,near-rnd3,28,2,0,1.25,2,up,1,0
191,True,2.5514107000199147,800.0,50.0,33.0,5,False,2,down,0.25,12,0.09297700002207421,0.22964950001914985,0.32262650004122406,0.9223118999798317,False,near-080,28,3,1,1.875,2,down,2,0
192,True,3.686561799986521,800.0,800.0,50.0,0,False,0,up,0.25,4,0,0.09550140000646934,0.09550140000646934,0.7813485999940895,True,near-rndm,27,9,5,5.625,2,up,2,1
193,True,1.383113099989714,800.0,50.0,33.0,15,False,2,up,0.25,8,0.2558222000079695,0.17330190000939183,0.42912410001736134,1.145459799998207,True,near-240,27,2,1,1.25,2,up,2,0
194,True,2.569313099986175,800.0,100.0,50.0,0,False,1,up,0.25,5,0,0.12456539997947402,0.12456539997947402,1.016555200010771,True,near-rnd2,27,3,2,1.875,3,up,1,0
195,True,1.4224978999991436,800.0,50.0,33.0,0,False,2,down,0.25,24,0,0.4273283999937121,0.4273283999937121,0.42692369999713264,True,near-000,28,9,7,5.625,2,down,2,1
196,True,9.041174799989676,800.0,50.0,33.0,10,False,2,down,0.25,8,0.16952860000310466,0.17422039998928085,0.3437489999923855,0.6001824999984819,False,near-160,27,12,8,7.5,2,down,2,1
197,True,1.0304359000001568,800.0,100.0,50.0,0,False,1,up,0.25,5,0,0.12350610000430606,0.12350610000430606,0.568753800005652,True,near-rnd2,28,4,3,2.5,3,up,1,0
198,True,1.5707097999984398,800.0,50.0,33.0,0,False,2,down,0.25,24,0,0.4228651000012178,0.4228651000012178,0.4155177000211552,True,near-000,29,10,8,6.25,2,down,2,1
199,True,7.388528799987398,800.0,33.0,50.0,0,False,3,up,0.25,42,0,0.6936253000167198,0.6936253000167198,0.456906200008234,False,near-rnd3,29,3,0,1.875,2,up,1,0
200,True,1.4720009999873582,800.0,50.0,33.0,10,False,2,down,0.25,8,0.16746290001901798,0.17124470000271685,0.33870760002173483,0.8132694000087213,True,near-160,28,13,9,8.125,2,down,2,1
201,True,1.9313686000241432,800.0,50.0,33.0,5,False,2,down,0.25,12,0.09261719998903573,0.23959450001711957,0.3322117000061553,0.6166833000024781,True,near-080,29,4,2,2.5,2,down,2,0
202,True,1.5347106999834068,800.0,800.0,50.0,0,False,0,up,0.25,4,0,0.09043499999097548,0.09043499999097548,0.656539999996312,True,near-rndm,28,10,6,6.25,2,up,2,1
203,True,1.2074030000076164,800.0,50.0,33.0,15,False,2,up,0.25,8,0.2525327999901492,0.16694450000068173,0.41947729999083094,2.098179099994013,False,near-240,28,3,1,1.875,2,up,2,0
204,True,1.1962641999998596,800.0,33.0,50.0,0,False,3,up,0.25,42,0,0.691744200012181,0.691744200012181,0.4307007000024896,False,near-rnd3,30,4,0,2.5,2,up,1,0
205,True,2.3005947999772616,800.0,100.0,50.0,0,False,1,up,0.25,5,0,0.12668140002642758,0.12668140002642758,0.7258655000186991,True,near-rnd2,29,5,4,3.125,3,up,1,0
206,True,1.8354145000048447,800.0,50.0,33.0,15,False,2,up,0.25,8,0.25046560002374463,0.17242640000768006,0.4228920000314247,0.7052632999839261,False,near-240,29,4,1,2.5,2,up,2,0
207,True,1.9328035000071395,800.0,800.0,50.0,0,False,0,up,0.25,4,0,0.09251590000349097,0.09251590000349097,0.63956720000715,True,near-rndm,29,11,7,6.875,2,up,2,1
208,True,4.444038600020576,800.0,50.0,33.0,5,False,2,down,0.25,12,0.08964670001296327,0.23078220000024885,0.3204289000132121,0.5254553999984637,True,near-080,30,5,3,3.125,2,down,2,0
209,True,5.321788000001106,800.0,50.0,33.0,0,False,2,down,0.25,24,0,0.42546639998909086,0.42546639998909086,0.3320952999929432,True,near-000,30,11,9,6.875,2,down,2,1
210,True,9.672997500019846,800.0,50.0,33.0,10,False,2,down,0.25,8,0.17069460000493564,0.1767522000009194,0.34744680000585504,0.5597545999917202,True,near-160,29,14,10,8.75,2,down,2,1
211,True,11.35941260002437,800.0,800.0,50.0,0,False,0,up,0.25,4,0,0.08862220001174137,0.08862220001174137,0.7199053000076674,True,near-rndm,30,12,8,7.5,2,up,2,1
212,True,1.649108800018439,800.0,100.0,50.0,0,False,1,up,0.25,5,0,0.12517350001144223,0.12517350001144223,0.9712620000063907,False,near-rnd2,30,6,4,3.75,3,up,1,0
213,True,1.0435763999994379,800.0,50.0,33.0,5,False,2,down,0.25,12,0.09315490000881255,0.24487280001631007,0.3380277000251226,1.2037753000040539,False,near-080,31,6,3,3.75,2,down,2,0
214,True,1.230090900004143,800.0,50.0,33.0,10,False,2,down,0.25,8,0.16830079999635927,0.1750846999930218,0.34338549998938106,1.188692900002934,False,near-160,30,15,10,9.375,2,down,2,1
215,True,9.564761000016006,800.0,33.0,50.0,0,False,3,up,0.25,43,0,0.7108474000124261,0.7108474000124261,0.7771665999898687,False,near-rnd3,31,1,0,0.625,2,up,1,0
216,True,2.3364013000100385,800.0,50.0,33.0,15,False,2,up,0.25,8,0.24830139998812228,0.17582210002001375,0.42412350000813603,0.6700321999960579,True,near-240,30,5,2,3.125,2,up,2,0
217,True,3.122391199984122,800.0,50.0,33.0,0,False,2,down,0.25,23,0,0.4137132999894675,0.4137132999894675,0.6270833000016864,True,near-000,31,1,1,0.625,2,down,1,0
218,True,1.9006167000043206,800.0,50.0,33.0,15,False,2,up,0.25,8,0.24909709999337792,0.16426420002244413,0.41336130001582205,0.6674646000028588,False,near-240,31,6,2,3.75,2,up,2,0
219,True,1.365109799982747,800.0,50.0,33.0,5,False,2,down,0.25,12,0.08798909999313764,0.23234120002598502,0.32033030001912266,0.5639643000031356,True,near-080,32,7,4,4.375,2,down,2,0
220,True,6.1100303000130225,800.0,50.0,33.0,10,False,2,down,0.25,8,0.17249849997460842,0.1720383999927435,0.34453689996735193,0.4902462000027299,True,near-160,31,16,11,10.0,2,down,2,1
221,True,2.558647199999541,800.0,33.0,50.0,0,False,3,up,0.25,43,0,0.7112019000051077,0.7112019000051077,0.6066955999995116,False,near-rnd3,32,2,0,1.25,2,up,1,0
222,True,5.199916299985489,800.0,800.0,50.0,0,False,0,up,0.25,4,0,0.09193319999030791,0.09193319999030791,0.6776018999808002,True,near-rndm,31,13,9,8.125,2,up,2,1
223,True,1.2415711000212468,800.0,100.0,50.0,0,False,1,up,0.25,5,0,0.12043090001679957,0.12043090001679957,1.4422935000038706,False,near-rnd2,31,7,4,4.375,3,up,1,0
224,True,2.31064250000054,800.0,50.0,33.0,0,False,2,down,0.25,23,0,0.4065806000144221,0.4065806000144221,0.4883345999987796,False,near-000,32,2,1,1.25,2,down,1,0
225,True,4.13901579999947,800.0,50.0,33.0,0,False,2,down,0.25,23,0,0.5418264999752864,0.5418264999752864,0.44902669999282807,True,near-000,33,3,2,1.875,2,down,1,0
226,True,2.2287316999863833,800.0,50.0,33.0,15,False,2,up,0.25,8,0.2500270999735221,0.1807015000085812,0.43072859998210333,0.8381079999962822,False,near-240,32,7,2,4.375,2,up,2,0
227,True,2.0938892000121996,800.0,33.0,50.0,0,False,3,up,0.25,43,0,0.7075179000094067,0.7075179000094067,1.2899465000082273,False,near-rnd3,33,3,0,1.875,2,up,1,0
228,True,2.00271500000963,800.0,100.0,50.0,0,False,1,up,0.25,5,0,0.1253015999973286,0.1253015999973286,0.950592199980747,False,near-rnd2,32,8,4,5.0,3,up,1,0
229,True,3.2156710000126623,800.0,50.0,33.0,5,False,2,down,0.25,12,0.09453589998884127,0.24908730000606738,0.34362319999490865,0.8062768000236247,True,near-080,33,8,5,5.0,2,down,2,0
230,True,1.415792000014335,800.0,800.0,50.0,0,False,0,up,0.25,4,0,0.09796179999830201,0.09796179999830201,0.7174623999744654,False,near-rndm,32,14,9,8.75,2,up,2,1
231,True,1.1155795000086073,800.0,50.0,33.0,10,False,2,down,0.25,8,0.1700530000089202,0.17204999999376014,0.34210300000268035,0.6110640999977477,True,near-160,32,17,12,10.625,2,down,2,2
232,True,1.796411299990723,800.0,33.0,50.0,0,False,3,up,0.25,43,0,0.7093415000126697,0.7093415000126697,0.4779866999888327,False,near-rnd3,34,4,0,2.5,2,up,1,0
233,True,2.3684352999844123,800.0,50.0,33.0,0,False,2,down,0.25,23,0,0.40664600001764484,0.40664600001764484,0.548041000001831,True,near-000,34,4,3,2.5,2,down,1,0
234,True,6.71111919998657,800.0,50.0,33.0,15,False,2,up,0.25,10,0.24727680001524277,0.1996579999977257,0.4469348000129685,1.4730762999970466,True,near-240,33,1,1,0.625,2,up,4,0
235,True,3.0706563999992795,800.0,50.0,33.0,5,False,2,down,0.25,12,0.08896950000780635,0.24266340001486242,0.33163290002266876,1.5123656999785453,True,near-080,34,9,6,5.625,2,down,2,1
236,True,1.3973848999885377,800.0,800.0,50.0,0,False,0,up,0.25,4,0,0.0868649999902118,0.0868649999902118,0.9779121000028681,False,near-rndm,33,15,9,9.375,2,up,2,1
237,True,1.0966275999962818,800.0,50.0,33.0,10,False,2,down,0.25,8,0.1737540000176523,0.1662300000025425,0.3399840000201948,0.8022539000085089,True,near-160,33,18,13,11.25,2,down,2,2
238,True,1.6258348999836016,800.0,50.0,33.0,0,False,2,down,0.25,23,0,0.40050660000997595,0.40050660000997595,0.6115338999952655,True,near-000,35,5,4,3.125,2,down,1,0
239,True,1.3739488999999594,800.0,800.0,50.0,0,False,0,up,0.25,4,0,0.08862379999482073,0.08862379999482073,1.527151699992828,True,near-rndm,34,16,10,10.0,2,up,2,1
240,True,2.2774822000064887,800.0,50.0,33.0,5,False,2,down,0.25,12,0.09009169999626465,0.2373729000100866,0.32746460000635125,0.7439361000142526,False,near-080,35,10,6,6.25,2,down,2,1
241,True,4.566052300011506,800.0,50.0,33.0,15,False,2,up,0.25,10,0.24921539999195375,0.20040959998732433,0.4496249999792781,1.064136300003156,True,near-240,34,2,2,1.25,1,up,4,0
242,True,1.3219409000012092,800.0,33.0,50.0,0,False,3,up,0.25,44,0,0.7266095000086352,0.7266095000086352,0.6235204999975394,False,near-rnd3,35,1,0,0.625,2,up,1,0
243,True,7.827735200000461,800.0,50.0,33.0,10,False,2,down,0.25,8,0.1663346000132151,0.17235310000251047,0.33868770001572557,0.8063583999755792,True,near-160,34,19,14,11.875,2,down,2,2
244,True,2.2064133000094444,800.0,800.0,50.0,0,False,0,up,0.25,4,0,0.08569750000606291,0.08569750000606291,0.6476193999988027,True,near-rndm,35,17,11,10.625,2,up,2,2
245,True,8.843439699994633,800.0,33.0,50.0,0,False,3,up,0.25,44,0,0.7255571999994572,0.7255571999994572,0.7567191000271123,False,near-rnd3,36,2,0,1.25,2,up,1,0
246,True,8.24587879999308,800.0,50.0,33.0,0,False,2,down,0.25,23,0,0.40305720001924783,0.40305720001924783,0.6677487000124529,False,near-000,36,6,4,3.75,2,down,1,0
247,True,1.594000600016443,800.0,50.0,33.0,15,False,2,up,0.25,10,0.2517387999978382,0.19832900000619702,0.45006780000403523,0.5775328000017907,True,near-240,35,3,3,1.875,1,up,4,0
248,True,1.8247986999922432,800.0,50.0,33.0,10,False,2,down,0.25,7,0.17499669999233447,0.15926240000408143,0.3342590999964159,1.829820099985227,False,near-160,35,1,0,0.625,2,down,1,0
249,True,5.536656899988884,800.0,50.0,33.0,5,False,2,down,0.25,12,0.09114079998107627,0.23240419998182915,0.3235449999629054,0.7354280000145081,False,near-080,36,11,6,6.875,2,down,2,1
250,True,3.028034699993441,800.0,50.0,33.0,10,False,2,down,0.25,7,0.17185320000862703,0.14886300000944175,0.3207162000180688,0.8545889999950305,True,near-160,36,2,1,1.25,3,down,1,0
251,True,1.7431020000076387,800.0,50.0,33.0,15,False,2,down,0.25,6,0.24698500000522472,0.1343176000227686,0.3813026000279933,2.7309434000053443,False,near-240,36,1,0,0.625,1,down,2,0
252,True,1.4313885000010487,800.0,33.0,50.0,0,False,3,up,0.25,44,0,0.7273234000022057,0.7273234000022057,0.47425070000463165,True,near-rnd3,37,3,1,1.875,2,up,1,0
253,True,6.773763200006215,800.0,800.0,50.0,0,False,0,up,0.25,4,0,0.08693700001458637,0.08693700001458637,0.5995034000079613,True,near-rndm,36,18,12,11.25,2,up,2,2
254,True,2.1983123999962118,800.0,50.0,33.0,0,False,2,down,0.25,23,0,0.40558690001489595,0.40558690001489595,0.5609775999910198,True,near-000,37,7,5,4.375,2,down,1,0
255,True,1.53836720000254,800.0,50.0,33.0,5,False,2,down,0.25,12,0.08986520001781173,0.23418860000674613,0.32405380002455786,0.7498374999850057,True,near-080,37,12,7,7.5,2,down,2,1
256,True,1.3926871999865398,800.0,33.0,50.0,0,False,3,up,0.25,44,0,0.7205796000198461,0.7205796000198461,0.6356391000153963,True,near-rnd3,38,4,2,2.5,2,up,1,0
257,True,2.2049300000071526,800.0,50.0,33.0,10,False,2,down,0.25,7,0.17209880001610145,0.16203199999290518,0.33413080000900663,0.8633468000043649,False,near-160,37,3,1,1.875,3,down,1,0
258,True,2.9291223000036553,800.0,50.0,33.0,0,False,2,down,0.25,23,0,0.4023065000073984,0.4023065000073984,0.7717173999990337,True,near-000,38,8,6,5.0,2,down,1,0
259,True,4.471963400021195,800.0,50.0,33.0,5,False,2,down,0.25,12,0.0911830999830272,0.22923210001317784,0.32041519999620505,0.7188196000060998,True,near-080,38,13,8,8.125,2,down,2,1
260,False,4.569319500005804,800.0,50.0,33.0,15,False,2,down,0.25,6,0.24871669997810386,0.14538380000158213,0.394100499979686,1.2119129000057,False,near-240,37,2,0,1.25,2,down,2,0
261,True,1.1861103000119328,800.0,800.0,50.0,0,False,0,up,0.25,4,0,0.09352039999794215,0.09352039999794215,0.7678563999943435,True,near-rndm,37,19,13,11.875,2,up,2,2
262,True,1.6577842999831773,800.0,50.0,33.0,15,False,2,down,0.25,6,0.24701619998086244,0.1419776999973692,0.38899389997823164,0.8312393999949563,True,near-240,37,2,1,1.25,2,down,2,0
263,True,1.3930571999808308,800.0,50.0,33.0,5,False,2,down,0.25,12,0.08669710002141073,0.23232919999281876,0.3190263000142295,1.1549939999822527,False,near-080,39,14,8,8.75,2,down,2,1
264,True,2.3763286999892443,800.0,50.0,33.0,0,False,2,down,0.25,23,0,0.4053602999774739,0.4053602999774739,0.40430739999283105,True,near-000,39,9,7,5.625,2,down,1,1
265,True,1.8022550000168849,800.0,33.0,50.0,0,False,3,up,0.25,44,0,0.724199900025269,0.724199900025269,0.4549006000161171,True,near-rnd3,39,5,3,3.125,2,up,1,0
266,True,1.6345030999800656,800.0,50.0,33.0,10,False,2,down,0.25,7,0.16618289999314584,0.15769059999729507,0.3238734999904409,0.6741833999985829,True,near-160,38,4,2,2.5,3,down,1,0
267,True,1.5027782999968622,800.0,800.0,50.0,0,False,0,up,0.25,4,0,0.0952984000032302,0.0952984000032302,0.7232367999968119,True,near-rndm,38,20,14,12.5,2,up,2,2
268,True,1.8599901999987196,800.0,50.0,33.0,0,False,2,down,0.25,23,0,0.40917969998554327,0.40917969998554327,1.2821450000046752,False,near-000,40,10,7,6.25,2,down,1,1
269,True,4.84055090000038,800.0,50.0,33.0,15,False,2,down,0.25,6,0.24997029997757636,0.14035979998880066,0.390330099966377,0.6774460000160616,True,near-240,38,3,2,1.875,2,down,2,0
270,True,2.631356900004903,800.0,50.0,33.0,5,False,2,down,0.25,12,0.09093649999704212,0.2295571000140626,0.3204936000111047,0.7059760999982245,True,near-080,40,15,9,9.375,2,down,2,1
271,True,1.3354628000233788,800.0,33.0,50.0,0,False,3,up,0.25,44,0,0.7234748000046238,0.7234748000046238,1.1857890999817755,False,near-rnd3,40,6,3,3.75,2,up,1,0
272,True,3.3596097999834456,800.0,800.0,50.0,0,False,0,up,0.25,4,0,0.09017939999466762,0.09017939999466762,0.6480030000093393,True,near-rndm,39,21,15,13.125,2,up,2,2
273,True,1.3554493999981787,800.0,50.0,33.0,10,False,2,down,0.25,7,0.16867099999217317,0.1517887000227347,0.32045970001490787,1.8704052999964915,True,near-160,39,5,3,3.125,3,down,1,0
274,True,1.2128373000014108,800.0,50.0,33.0,0,False,2,down,0.25,23,0,0.40354719999595545,0.40354719999595545,0.4048551000014413,True,near-000,41,11,8,6.875,2,down,1,1
275,False,2.5931411999918055,800.0,800.0,50.0,0,False,0,up,0.25,4,0,0.09101790000568144,0.09101790000568144,1.3234601999865845,True,near-rndm,40,22,16,13.75,2,up,2,2
276,True,0.8891536000010092,800.0,50.0,33.0,5,False,2,down,0.25,12,0.08725399998365901,0.2384563999949023,0.3257103999785613,0.5045271000126377,True,near-080,41,16,10,10.0,2,down,2,1
277,True,3.6087168999947608,800.0,50.0,33.0,15,False,2,down,0.25,6,0.24724150000838563,0.14202899998053908,0.3892704999889247,0.8509253000083845,False,near-240,39,4,2,2.5,2,down,2,0
278,True,2.638544199988246,800.0,33.0,50.0,0,False,3,up,0.25,44,0,0.7283096999744885,0.7283096999744885,0.6915242000250146,False,near-rnd3,41,7,3,4.375,2,up,1,0
279,True,1.6854455000138842,800.0,50.0,33.0,10,False,2,down,0.25,7,0.1691335999930743,0.15942979999817908,0.3285633999912534,0.9269189000187907,False,near-160,40,6,3,3.75,3,down,1,0
280,True,1.1824172000051476,800.0,800.0,50.0,0,False,0,up,0.25,4,0,0.08977220000815578,0.08977220000815578,0.7928391000023112,True,near-rndm,40,22,16,13.75,2,up,2,2
281,True,1.249239700002363,800.0,50.0,33.0,10,False,2,down,0.25,7,0.16732420001062565,0.1585921999940183,0.32591640000464395,0.7427174000185914,True,near-160,41,7,4,4.375,3,down,1,0
282,True,3.29338230000576,800.0,50.0,33.0,5,False,2,down,0.25,12,0.09138640001765452,0.2273797999951057,0.31876620001276024,0.771759800001746,True,near-080,42,17,11,10.625,2,down,2,2
283,True,1.3911619999853428,800.0,50.0,33.0,15,False,2,down,0.25,6,0.24721030000364408,0.14263829999254085,0.38984859999618493,1.405832399992505,False,near-240,40,5,2,3.125,2,down,2,0
284,True,2.128748099989025,800.0,33.0,50.0,0,False,3,up,0.25,44,0,0.7308758000144735,0.7308758000144735,0.5187615999893751,True,near-rnd3,42,8,4,5.0,2,up,1,0
285,True,4.1785281999909785,800.0,50.0,33.0,0,False,2,down,0.25,23,0,0.4130201000079978,0.4130201000079978,0.610530399979325,False,near-000,42,12,8,7.5,2,down,1,1
286,True,1.904811599990353,800.0,50.0,33.0,15,False,2,down,0.25,6,0.24840650000260212,0.1344704999937676,0.3828769999963697,4.711584400007268,False,near-240,41,6,2,3.75,2,down,2,0
287,True,1.5538352000003215,800.0,50.0,33.0,0,False,2,down,0.25,23,0,0.40727460000198334,0.40727460000198334,2.1839852999837603,False,near-000,43,13,8,8.125,2,down,1,1
288,True,3.61761149999802,800.0,50.0,33.0,10,False,2,down,0.25,7,0.16882980000809766,0.16213690000586212,0.3309667000139598,0.5159361999831162,True,near-160,42,8,5,5.0,3,down,1,0
289,True,1.7814370000269264,800.0,50.0,33.0,5,False,2,down,0.25,12,0.09266269998624921,0.23820469999918714,0.33086739998543635,0.710780599998543,False,near-080,43,18,11,11.25,2,down,2,2
290,True,2.2131421999947634,800.0,33.0,50.0,0,False,3,up,0.25,44,0,0.7294344999827445,0.7294344999827445,0.7458859000180382,False,near-rnd3,43,9,4,5.625,2,up,1,1
291,True,4.130142999987584,800.0,50.0,33.0,5,False,2,down,0.25,12,0.0872623999894131,0.2310730000026524,0.3183353999920655,0.7664411999867298,True,near-080,44,19,12,11.875,2,down,2,2
292,True,2.0124410999997053,800.0,33.0,50.0,0,False,3,up,0.25,44,0,0.7267008999770042,0.7267008999770042,0.46503799999482,True,near-rnd3,44,10,5,6.25,2,up,1,1
293,True,1.9893695999926422,800.0,50.0,33.0,0,False,2,down,0.25,23,0,0.4008793999964837,0.4008793999964837,0.5343096000142395,True,near-000,44,14,9,8.75,2,down,1,1
294,True,4.8273049000126775,800.0,50.0,33.0,15,False,2,down,0.25,6,0.24812240002211183,0.13843799999449402,0.38656040001660585,0.867800999985775,False,near-240,42,7,2,4.375,2,down,2,0
295,True,2.6124415999802295,800.0,33.0,50.0,0,False,3,up,0.25,44,0,0.7278841999941505,0.7278841999941505,0.2985991000023205,True,near-rnd3,45,11,6,6.875,2,up,1,1
296,True,3.4352076000068337,800.0,50.0,33.0,5,False,2,down,0.25,12,0.08821649997844361,0.2361181000014767,0.3243345999799203,0.9971241999883205,False,near-080,45,20,12,12.5,2,down,2,2
297,True,1.3332377999904566,800.0,50.0,33.0,15,False,2,up,0.25,8,0.2495475999894552,0.17312620001030155,0.42267379999975674,0.6597329000069294,True,near-240,43,1,1,0.625,2,up,1,0
298,True,8.992722800001502,800.0,50.0,33.0,0,False,2,down,0.25,23,0,0.40463240002281964,0.40463240002281964,0.5890093000198249,False,near-000,45,15,9,9.375,2,down,1,1
299,True,6.230811599991284,800.0,50.0,33.0,15,False,2,up,0.25,8,0.24912809999659657,0.17227479998837225,0.4214028999849688,0.5483726999955252,True,near-240,44,2,2,1.25,2,up,1,0
300,True,4.680531700025313,800.0,33.0,50.0,0,False,3,up,0.25,44,0,0.7270396999956574,0.7270396999956574,0.5247708999959286,True,near-rnd3,46,12,7,7.5,2,up,1,1
301,True,1.7592048000078648,800.0,50.0,33.0,0,False,2,down,0.25,23,0,0.40324129999498837,0.40324129999498837,0.5370191999827512,True,near-000,46,16,10,10.0,2,down,1,1
302,True,2.7896213999774773,800.0,50.0,33.0,5,False,2,down,0.25,12,0.09485069999936968,0.2305488999991212,0.3253995999984909,0.7283380999870133,True,near-080,46,21,13,13.125,2,down,2,2
303,True,2.13372199999867,800.0,50.0,33.0,5,False,2,down,0.25,12,0.0942806999955792,0.23884110001381487,0.33312180000939406,0.9617583999934141,False,near-080,47,22,13,13.75,2,down,2,2
304,True,1.997618399997009,800.0,50.0,33.0,15,False,2,up,0.25,8,0.24815440000384115,0.17273540000314824,0.4208898000069894,0.6684972000075504,True,near-240,45,3,3,1.875,2,up,1,0
305,True,2.092955800006166,800.0,33.0,50.0,0,False,3,up,0.25,44,0,0.7258903000038117,0.7258903000038117,0.5632595999923069,True,near-rnd3,47,13,8,8.125,2,up,1,1
306,True,1.965221599995857,800.0,50.0,33.0,15,False,2,up,0.25,8,0.25016080000204965,0.16938269999809563,0.4195435000001453,0.6590775000222493,True,near-240,46,4,4,2.5,2,up,1,0
307,True,1.8539720999833662,800.0,50.0,33.0,5,False,2,down,0.25,12,0.08765930001391098,0.23110549998818897,0.31876480000209995,0.655139100010274,False,near-080,48,23,13,14.375,2,down,2,2
308,True,1.3569982000044547,800.0,33.0,50.0,0,False,3,up,0.25,44,0,0.7281367000250611,0.7281367000250611,1.5313576999760699,False,near-rnd3,48,14,8,8.75,2,up,1,1
309,True,3.548609999998007,800.0,33.0,50.0,0,False,3,up,0.25,44,0,0.7302275999973062,0.7302275999973062,0.34216729999752715,True,near-rnd3,49,15,9,9.375,2,up,1,1
310,True,2.2106400999764446,800.0,50.0,33.0,15,False,2,up,0.25,8,0.2462830999866128,0.16615319999982603,0.4124362999864388,0.6134517999889795,True,near-240,47,5,5,3.125,2,up,1,0
311,True,2.9152642999833915,800.0,50.0,33.0,5,False,2,down,0.25,12,0.08984450000571087,0.23654440001701005,0.3263889000227209,0.6412750999734271,True,near-080,49,24,14,15.0,2,down,2,2
312,True,1.1740473999816459,800.0,33.0,50.0,0,False,3,up,0.25,44,0,0.7249965999799315,0.7249965999799315,0.4594333000131883,True,near-rnd3,50,16,10,10.0,2,up,1,1
313,True,3.357871400017757,800.0,50.0,33.0,15,False,2,up,0.25,8,0.2486706000054255,0.17223890000605024,0.42090950001147576,0.8677863999910187,False,near-240,48,6,5,3.75,2,up,1,0
314,True,1.4449464000063017,800.0,100.0,50.0,0,False,1,up,0.25,5,0,0.1204892999958247,0.1204892999958247,1.0753575999988243,True,near-rnd2,33,9,5,5.625,3,up,16,1
315,True,4.374467299989192,800.0,800.0,50.0,0,False,0,down,0.25,3,0,0.07788399999844842,0.07788399999844842,1.0868410000111908,False,near-rndm,41,1,0,0.625,2,down,16,0
316,True,1.8936167000210844,800.0,33.0,50.0,0,False,3,up,0.25,44,0,0.7276197000173852,0.7276197000173852,1.6418507999915164,False,near-rnd3,51,17,10,10.625,2,up,16,2
317,True,1.752038199978415,800.0,50.0,33.0,15,False,2,up,0.25,8,0.25362149998545647,0.16940450001857243,0.4230260000040289,0.7923486000217963,False,near-240,49,7,5,4.375,2,up,1,0
318,True,1.5966714000096545,800.0,33.0,50.0,0,False,3,up,0.25,48,0,0.7887247999897227,0.7887247999897227,0.2912458000064362,True,near-rnd3,52,1,1,0.625,0.5,up,4,0
319,True,14.076084199972684,800.0,100.0,50.0,0,False,1,up,0.25,13,0,0.2472983000043314,0.2472983000043314,0.7840148999821395,True,near-rnd2,34,1,1,0.625,0.5,up,8,0
320,True,2.5551808000018355,800.0,50.0,33.0,15,False,2,up,0.25,8,0.25345740001648664,0.24378680001245812,0.49724420002894476,0.6488595999835525,True,near-240,50,8,6,5.0,2,up,1,0
321,True,1.6763790999830235,800.0,800.0,50.0,0,False,0,down,0.25,3,0,0.07090569997671992,0.07090569997671992,0.7066462000075262,True,near-rndm,42,2,1,1.25,1.0,down,16,0
322,True,1.8850426000135485,800.0,50.0,33.0,15,False,2,up,0.25,8,0.2480128000024706,0.1701137999771163,0.4181265999795869,0.6004711000132374,True,near-240,51,9,7,5.625,2,up,1,1
323,True,1.3809988000139128,800.0,33.0,50.0,0,False,3,up,0.25,48,0,0.7899475000158418,0.7899475000158418,0.3047489000018686,True,near-rnd3,53,2,2,1.25,1,up,4,0
324,True,3.3623927000153344,800.0,800.0,50.0,0,False,0,down,0.25,2,0,0.05788619999657385,0.05788619999657385,0.805320000014035,False,near-rndm,43,1,0,0.625,1.0,down,16,0
325,True,2.7354097999923397,800.0,100.0,50.0,0,False,1,up,0.25,13,0,0.2557558999978937,0.2557558999978937,0.6421922000008635,True,near-rnd2,35,2,2,1.25,1,up,8,0
326,True,1.3659301000006963,800.0,800.0,50.0,0,False,0,up,0.25,18,0,0.31503829997382127,0.31503829997382127,0.5283733000105713,True,near-rndm,44,1,1,0.625,0.5,up,8,0
327,True,1.479721600015182,800.0,50.0,33.0,15,False,2,up,0.25,8,0.24757040000986308,0.17337969999061897,0.42095010000048205,0.6549708999809809,True,near-240,52,10,8,6.25,2,up,1,1
328,True,4.250628800014965,800.0,33.0,50.0,0,False,3,up,0.25,48,0,0.7852661000215448,0.7852661000215448,0.48184999998193234,True,near-rnd3,54,3,3,1.875,1,up,4,0
329,True,1.3549676999973599,800.0,100.0,50.0,0,False,1,up,0.25,13,0,0.24528979999013245,0.24528979999013245,0.5918251999828499,True,near-rnd2,36,3,3,1.875,1,up,8,0
330,True,2.554768800007878,800.0,800.0,50.0,0,False,0,up,0.25,18,0,0.3161745000106748,0.3161745000106748,0.4408298999769613,True,near-rndm,45,2,2,1.25,1,up,8,0
331,True,2.4947633999981917,800.0,100.0,50.0,0,False,1,down,0.25,5,0,0.12102109999977984,0.12102109999977984,0.823316199996043,False,near-rnd2,37,1,0,0.625,1,down,4,0
332,True,1.3871675000118557,800.0,50.0,33.0,15,False,2,up,0.25,8,0.2519011000113096,0.16783829999621958,0.4197394000075292,1.787352399987867,False,near-240,53,11,8,6.875,2,up,1,1
333,True,10.999371400015661,800.0,33.0,50.0,0,False,3,down,0.25,44,0,0.7239915000100154,0.7239915000100154,1.0193453000101727,True,near-rnd3,55,1,1,0.625,1,down,2,0
334,True,2.6758489000203554,800.0,50.0,33.0,15,False,2,up,0.25,8,0.249633300001733,0.17719359998591244,0.42682689998764545,1.929628199985018,False,near-240,54,12,8,7.5,2,up,1,1
335,True,1.3841109000204597,800.0,100.0,50.0,0,False,1,down,0.25,5,0,0.12363950000144541,0.12363950000144541,0.7044690999900922,True,near-rnd2,38,2,1,1.25,1,down,4,0
336,True,1.9122492999886163,800.0,800.0,50.0,0,False,0,up,0.25,18,0,0.31440329999895766,0.31440329999895766,0.5419127999921329,True,near-rndm,46,3,3,1.875,1,up,8,0
337,True,5.087138700007927,800.0,33.0,50.0,0,False,3,down,0.25,44,0,0.7223190999939106,0.7223190999939106,0.3972033000027295,True,near-rnd3,56,2,2,1.25,2,down,2,0
338,True,1.6374089000164531,800.0,100.0,50.0,0,False,1,down,0.25,5,0,0.11759400001028553,0.11759400001028553,0.9896702999831177,False,near-rnd2,39,3,1,1.875,1,down,4,0
339,True,5.462390900007449,800.0,33.0,50.0,0,False,3,down,0.25,44,0,0.7265370000095572,0.7265370000095572,0.5228602999995928,True,near-rnd3,57,3,3,1.875,2,down,2,0
340,True,1.7946770999988075,800.0,800.0,50.0,0,False,0,down,0.25,10,0,0.1856895000091754,0.1856895000091754,0.5437668000231497,True,near-rndm,47,1,1,0.625,1,down,4,0
341,True,1.1328131000045687,800.0,50.0,33.0,15,False,2,up,0.25,8,0.25511420000111684,0.16809769999235868,0.4232118999934755,0.8984733000106644,True,near-240,55,13,9,8.125,2,up,1,1
342,True,2.1938139000267256,800.0,33.0,50.0,0,False,3,down,0.25,44,0,0.7231634999916423,0.7231634999916423,0.5794379000144545,False,near-rnd3,58,4,3,2.5,2,down,2,0
343,True,1.5216080000100192,800.0,800.0,50.0,0,False,0,down,0.25,10,0,0.19070569999166764,0.19070569999166764,0.48418659999151714,True,near-rndm,48,2,2,1.25,1,down,4,0
344,True,10.149683700001333,800.0,50.0,33.0,15,False,2,up,0.25,8,0.24800119997235015,0.1717367999954149,0.41973799996776506,1.4137343000038527,False,near-240,56,14,9,8.75,2,up,1,1
345,True,1.7770147999981418,800.0,100.0,50.0,0,False,1,down,0.25,5,0,0.12647749998723157,0.12647749998723157,2.0226024000148755,False,near-rnd2,40,4,1,2.5,1,down,4,0
346,True,1.234189199982211,800.0,100.0,50.0,0,False,1,up,0.25,9,0,0.17960589998983778,0.17960589998983778,1.0721599999815226,False,near-rnd2,41,1,0,0.625,1,up,2,0
347,True,2.044202099990798,800.0,33.0,50.0,0,False,3,down,0.25,44,0,0.7204698999994434,0.7204698999994434,0.2391741000174079,True,near-rnd3,59,5,4,3.125,2,down,2,0
348,True,2.333479399996577,800.0,800.0,50.0,0,False,0,down,0.25,10,0,0.18152010001358576,0.18152010001358576,0.5509108999976888,True,near-rndm,49,3,3,1.875,1,down,4,0
349,True,2.660051300015766,800.0,50.0,33.0,15,False,2,up,0.25,8,0.24586679998901673,0.16784209999605082,0.41370889998506755,0.6565379000094254,True,near-240,57,15,10,9.375,2,up,1,1
350,True,4.830387399997562,800.0,33.0,50.0,0,False,3,down,0.25,44,0,0.7286023000197019,0.7286023000197019,0.45293559998390265,False,near-rnd3,60,6,4,3.75,2,down,2,0
351,True,2.5853965999849606,800.0,50.0,33.0,15,False,2,up,0.25,8,0.2522739999985788,0.17560419999063015,0.42787819998920895,0.7598698000074364,True,near-240,58,16,11,10.0,2,up,1,1
