trial,primeCorrect,primeTime,primeDepth,stimDepth,diopters,nearToFar,direction,size,intensity,requestedLatency,actualLatency,responseTime,correct,caseLabel,caseTrial,trialsAtStep,stepCorrect,expected,w,direction,stepsize,stepChange
1,True,22.67245990014635,33.0,33.0,100.0,0,False,0,start,0.25,60,0,0.9850722998380661,0,0.4312350999098271,True,far-rnd2,1,1,1,0.75,0.5,start,16,0
2,True,1.600804700050503,33.0,33.0,100.0,0,False,0,start,0.25,60,0,0.9776064998004586,0,0.3239283999428153,False,far-rndm,1,1,0,0.75,0.5,start,16,0
3,True,3.4288702001795173,33.0,100.0,800.0,5,True,2,start,0.25,60,0.08852140000090003,0.9983522999100387,5.0885214000009,39.45211149984971,False,far-080,1,1,0,0.75,0.5,start,16,0
4,True,2.6415579998865724,33.0,100.0,800.0,0,True,2,start,0.25,60,0,0.997021900024265,0,0.439023399958387,False,far-000,1,1,0,0.75,0.5,start,16,0
5,True,1.6276225000619888,33.0,100.0,800.0,10,True,2,start,0.25,60,0.17093520006164908,1.0092217999044806,10.170935200061649,46.81321070017293,True,far-160,1,1,1,0.75,0.5,start,16,0
6,True,3.7935480000451207,33.0,100.0,800.0,5,True,2,start,0.25,60,0.09194419998675585,1.0154961999505758,5.091944199986756,52.056682700058445,True,far-080,2,2,1,1.5,1.0,start,16,0
7,True,5.36596899991855,33.0,100.0,800.0,0,True,2,start,0.25,60,0,0.9970989001449198,0,0.38482649996876717,True,far-000,2,2,1,1.5,1.0,start,16,0
8,True,11.32649779994972,33.0,33.0,100.0,0,False,0,start,0.25,60,0,0.9727942999452353,0,0.15523130004294217,False,far-rnd2,2,2,1,1.5,1.0,start,16,0
9,True,2.0636829000432044,33.0,33.0,100.0,0,False,0,start,0.25,60,0,0.9764495000708848,0,0.3474920999724418,False,far-rndm,2,2,0,1.5,1.0,start,16,0
10,True,5.214484900003299,33.0,100.0,800.0,10,True,2,start,0.25,60,0.17316830018535256,1.0036353000905365,10.173168300185353,81.49739980022423,True,far-160,2,2,2,1.5,1.0,start,16,0
11,True,6.86719059990719,33.0,800.0,100.0,0,True,3,start,0.25,60,0,0.988633600063622,0,89.68604029994458,True,far-rnd2,3,3,2,2.25,1.0,start,16,0
12,True,6.288600499974564,33.0,50.0,100.0,0,True,1,up,0.25,76,0,1.240361199947074,0,0.32038969988934696,False,far-rndm,3,1,0,0.75,1.0,up,16,0
13,True,7.116409500129521,33.0,100.0,800.0,0,True,2,start,0.25,60,0,0.9882904998958111,0,0.3879760999698192,False,far-000,3,3,1,2.25,1.0,start,16,0
14,True,2.2537996999453753,33.0,100.0,800.0,10,True,2,start,0.25,60,0.16945059993304312,1.002580099971965,10.169450599933043,111.84489510022104,True,far-160,3,3,3,2.25,1.0,start,16,0
15,True,6.997486999956891,33.0,100.0,800.0,5,True,2,start,0.25,60,0.09338590013794601,0.9995903999079019,5.093385900137946,120.31732790009119,True,far-080,3,3,2,2.25,1.0,start,16,0
16,True,5.021056999918073,33.0,50.0,100.0,0,True,1,start,0.25,60,0,0.9891046001575887,0,0.2953997999429703,True,far-rnd2,4,4,3,3.0,0.5,start,16,0
17,False,3.1969384998083115,33.0,100.0,800.0,10,True,2,down,0.25,44,0.17520840000361204,0.7546296999789774,10.175208400003612,131.0541877001524,False,far-160,4,1,0,0.75,0.5,down,16,0
18,True,2.216588999843225,33.0,100.0,800.0,0,True,2,up,0.25,76,0,1.2522315999958664,0,0.36812489992007613,False,far-000,4,1,0,0.75,0.5,up,16,0
19,True,13.889374499907717,33.0,100.0,800.0,5,True,2,start,0.25,60,0.08793649985454977,1.0114424000494182,5.08793649985455,150.3587251000572,True,far-080,4,4,3,3.0,0.5,start,16,0
20,True,4.9174416998866946,33.0,50.0,100.0,0,True,1,up,0.25,76,0,1.2416373000014573,0,0.3159562998916954,True,far-rndm,4,2,1,1.5,1.0,up,16,0
21,True,2.642252800054848,33.0,800.0,100.0,0,True,3,start,0.25,60,0,0.9899286001455039,0,160.83041350007989,True,far-rnd2,5,5,4,3.75,0.5,start,16,0
22,False,13.469048900064081,33.0,100.0,800.0,10,True,2,down,0.25,44,0.1718381999526173,0.7544087001588196,10.171838199952617,175.91914230026305,True,far-160,4,1,1,0.75,0.5,down,16,0
23,True,1.9189837998710573,33.0,100.0,800.0,5,True,2,start,0.25,60,0.09194740001112223,0.9987070001661777,5.091947400011122,179.33455380005762,True,far-080,5,5,4,3.75,0.5,start,16,0
24,True,5.620028700213879,33.0,100.0,800.0,0,True,2,up,0.25,76,0,1.2497250998858362,0,0.06682699988596141,False,far-000,5,2,0,1.5,1.0,up,16,0
25,True,3.0949774000328034,33.0,33.0,100.0,0,False,0,up,0.25,76,0,1.2285841000266373,0,0.3694899999536574,True,far-rndm,5,3,2,2.25,1.0,up,16,0
26,True,1.8006941999774426,33.0,100.0,800.0,5,True,2,start,0.25,60,0.09054160001687706,1.0060473999474198,5.090541600016877,194.2099870000966,False,far-080,6,6,4,4.5,0.5,start,16,0
27,True,2.3287285999394953,33.0,800.0,100.0,0,True,3,up,0.25,76,0,1.2463420000858605,0,198.21491850004531,False,far-rndm,6,4,2,3.0,0.5,up,16,0
28,True,5.777239200193435,33.0,800.0,100.0,0,True,3,start,0.25,60,0,0.9823366000782698,0,205.33534900005907,False,far-rnd2,6,6,4,4.5,0.5,start,16,0
29,True,2.1720517999492586,33.0,100.0,800.0,0,True,2,up,0.25,80,0,1.3131473001558334,0,0.32874549995176494,False,far-000,6,1,0,0.75,1.0,up,16,0
30,True,5.82748209987767,33.0,100.0,800.0,10,True,2,down,0.25,44,0.1704282001592219,0.7492754999548197,10.170428200159222,216.56790960021317,True,far-160,4,1,1,0.75,0.5,down,16,0
31,True,8.422923299949616,33.0,50.0,100.0,0,True,1,start,0.25,60,0,0.9893235000781715,0,0.3410287001170218,False,far-rnd2,7,7,4,5.25,0.5,start,16,0
32,True,10.646615299861878,33.0,100.0,800.0,5,True,2,start,0.25,60,0.09171499987132847,1.0053447999525815,5.0917149998713285,238.5315347001888,True,far-080,7,7,5,5.25,0.5,start,16,0
33,True,2.678517899941653,33.0,100.0,800.0,0,True,2,up,0.25,80,0,1.3983345001470298,0,0.32369089988060296,False,far-000,7,2,0,1.5,1.0,up,16,0
34,True,2.009618900017813,33.0,50.0,100.0,0,True,1,up,0.25,80,0,1.3087452000472695,0,0.6738189000170678,True,far-rndm,7,1,1,0.75,0.5,up,16,0
35,False,1.5546210000757128,33.0,100.0,800.0,10,True,2,down,0.25,44,0.17037800000980496,0.7506176999304444,10.170378000009805,249.68857910018414,True,far-160,5,2,2,1.5,1.0,down,16,0
36,True,1.136588300112635,33.0,100.0,800.0,0,True,2,up,0.25,80,0,1.316088099963963,0,0.3301581998821348,True,far-000,8,1,1,0.75,1.0,up,16,0
37,True,1.6981176000554115,33.0,50.0,100.0,0,True,1,up,0.25,80,0,1.3065014998428524,0,0.38378280005417764,False,far-rndm,8,2,1,1.5,1.0,up,16,0
38,True,3.5348551000934094,33.0,100.0,800.0,10,True,2,down,0.25,44,0.16894269990734756,0.7557800998911262,10.168942699907348,260.8803533001337,True,far-160,5,2,2,1.5,1.0,down,16,0
39,True,1.736055700108409,33.0,800.0,100.0,0,True,3,up,0.25,76,0,1.2452195000369102,0,264.3451861999929,False,far-rnd2,8,1,0,0.75,0.5,up,16,0
40,True,2.575997400097549,33.0,100.0,800.0,5,True,2,start,0.25,60,0.09246110008098185,1.0035443000961095,5.092461100080982,268.4549147998914,False,far-080,8,8,5,6.0,0.5,start,16,0
41,True,2.573730699950829,33.0,100.0,800.0,0,True,2,up,0.25,80,0,1.3284481998998672,0,0.3444255997892469,True,far-000,9,2,2,1.5,1.0,up,16,0
42,True,2.36126619996503,33.0,50.0,100.0,0,True,1,up,0.25,80,0,1.305130299879238,0,0.3332014000043273,False,far-rndm,9,3,1,2.25,1.0,up,16,0
43,True,4.359084099996835,33.0,100.0,800.0,5,True,2,up,0.25,68,0.0914106999989599,1.175182200036943,5.09141069999896,282.8726304001175,False,far-080,9,1,0,0.75,0.5,up,8,0
44,True,4.624200100079179,33.0,800.0,100.0,0,True,3,up,0.25,76,0,1.2397508998401463,0,289.09728000010364,True,far-rnd2,9,2,1,1.5,1.0,up,16,0
45,True,8.0127812998835,33.0,100.0,800.0,10,True,2,down,0.25,44,0.20404800004325807,0.7537412000820041,10.204048000043258,298.5943377998192,True,far-160,6,3,3,2.25,1.0,down,16,0
46,True,4.940197699936107,33.0,100.0,800.0,10,True,2,down,0.25,28,0.1682054998818785,0.5019723000004888,10.168205499881878,304.6952861000318,False,far-160,7,1,0,0.75,0.5,down,16,0
47,True,2.166975599946454,33.0,100.0,800.0,0,True,2,up,0.25,80,0,1.3118834998458624,0,0.40836500003933907,True,far-000,10,3,3,2.25,1.0,up,16,0
48,True,1.4406731999479234,33.0,100.0,800.0,5,True,2,up,0.25,68,0.09392700018361211,1.1298879999667406,5.093927000183612,311.8307034999598,False,far-080,10,2,0,1.5,1,up,8,0
49,True,16.379961099941283,33.0,50.0,100.0,0,True,1,up,0.25,80,0,1.3054062000010163,0,0.2591081000864506,False,far-rndm,10,1,0,0.75,0.5,up,16,0
50,True,1.6622452000156045,33.0,33.0,100.0,0,False,0,up,0.25,76,0,1.2313534999266267,0,0.3067477000877261,False,far-rnd2,10,3,1,2.25,1.0,up,16,0
51,True,2.5662317001260817,33.0,100.0,800.0,0,True,2,down,0.25,64,0,1.0564198000356555,0,0.4388885998632759,True,far-000,11,1,1,0.75,0.5,down,8,0
52,True,1.7025154998991638,33.0,100.0,800.0,10,True,2,down,0.25,28,0.171982399886474,0.49076669989153743,10.171982399886474,339.97909200005233,True,far-160,8,2,1,1.5,1.0,down,16,0
53,True,1.441904499894008,33.0,800.0,100.0,0,True,3,up,0.25,80,0,1.304475599899888,0,344.4616718001198,True,far-rndm,11,2,1,1.5,1.0,up,16,0
54,True,2.722868800163269,33.0,33.0,100.0,0,False,0,up,0.25,80,0,1.2937646000646055,0,0.03427439997904003,True,far-rnd2,11,1,1,0.75,0.5,up,16,0
55,True,3.842357899993658,33.0,100.0,800.0,5,True,2,up,0.25,76,0.08957449998706579,1.2612022999674082,5.089574499987066,354.23402329999954,True,far-080,11,1,1,0.75,1,up,8,0
56,True,3.9969014001544565,33.0,100.0,800.0,0,True,2,down,0.25,64,0,1.0568996998481452,0,0.457942099776119,True,far-000,12,2,2,1.5,1,down,8,0
57,True,6.940338599961251,33.0,800.0,100.0,0,True,3,up,0.25,80,0,1.306334299966693,0,368.3901615999639,True,far-rnd2,12,2,2,1.5,1.0,up,16,0
58,True,11.419955900171772,33.0,100.0,800.0,10,True,2,down,0.25,28,0.17334179999306798,0.49406139994971454,10.173341799993068,380.94538510008715,False,far-160,9,3,1,2.25,1.0,down,16,0
59,True,2.7949322999920696,33.0,33.0,100.0,0,False,0,up,0.25,80,0,1.2937361001968384,0,0.24528350005857646,False,far-rndm,12,3,1,2.25,1.0,up,16,0
60,True,0.888085599988699,33.0,100.0,800.0,5,True,2,up,0.25,76,0.0932938999030739,1.2626644000411034,5.093293899903074,388.3737397000659,True,far-080,12,2,2,1.5,1,up,8,0
61,True,3.0257379999384284,33.0,100.0,800.0,10,True,2,up,0.25,44,0.16780369984917343,0.8779147998429835,10.167803699849173,392.8655315001961,False,far-160,10,1,0,0.75,0.5,up,8,0
62,True,2.7412616999354213,33.0,50.0,100.0,0,True,1,up,0.25,80,0,1.3070616000331938,0,0.40050890017300844,False,far-rnd2,13,3,2,2.25,1.0,up,16,0
63,True,7.588375200051814,33.0,100.0,800.0,0,True,2,down,0.25,64,0,1.0606114000547677,0,0.4297239000443369,False,far-000,13,3,2,2.25,1,down,8,0
64,True,1.643122100038454,33.0,100.0,800.0,5,True,2,up,0.25,76,0.09127939981408417,1.2722318000160158,5.091279399814084,409.7473548001144,True,far-080,13,3,3,2.25,1,up,8,0
65,True,2.013986200094223,33.0,800.0,100.0,0,True,3,up,0.25,80,0,1.3056661000009626,0,413.4422739997972,False,far-rndm,13,1,0,0.75,0.5,up,16,0
66,True,10.355115399928764,33.0,50.0,100.0,0,True,1,up,0.25,80,0,1.306398699991405,0,0.3285638999659568,True,far-rndm,14,2,1,1.5,1.0,up,16,0
67,True,2.815455799922347,33.0,100.0,800.0,10,True,2,up,0.25,44,0.17171819997020066,0.7617101999931037,10.1717181999702,429.70766400010325,False,far-160,11,2,0,1.5,1,up,8,0
68,True,1.7857863998506218,33.0,100.0,800.0,0,True,2,down,0.25,64,0,1.0628235000185668,0,0.3896087999455631,True,far-000,14,4,3,3.0,1,down,8,0
69,True,4.8694148999638855,33.0,100.0,800.0,5,True,2,up,0.25,76,0.09188119997270405,1.2670680000446737,5.091881199972704,439.6458425002638,False,far-080,14,4,3,3.0,1,up,8,0
70,True,1.8195535999257118,33.0,800.0,100.0,0,True,3,up,0.25,80,0,1.309134199982509,0,443.1873900000937,True,far-rnd2,14,4,3,3.0,0.5,up,16,0
71,True,2.518601399846375,33.0,100.0,800.0,0,True,2,down,0.25,64,0,1.1992568001151085,0,0.08267130004242063,False,far-000,15,5,3,3.75,1,down,8,0
72,True,1.7501102997921407,33.0,100.0,800.0,5,True,2,up,0.25,76,0.09506429987959564,1.2662726000417024,5.095064299879596,451.1205569000449,False,far-080,15,5,3,3.75,1,up,8,0
73,True,2.7058294999878854,33.0,33.0,100.0,0,False,0,up,0.25,80,0,1.2971544999163598,0,0.31176339997909963,False,far-rndm,15,3,1,2.25,1.0,up,16,0
74,True,1.7019964000210166,33.0,50.0,100.0,0,True,1,up,0.25,80,0,1.3085547999944538,0,0.3932161000557244,True,far-rnd2,15,5,4,3.75,0.5,up,16,0
75,True,2.4592659000772983,33.0,100.0,800.0,10,True,2,up,0.25,52,0.1696421999949962,0.9838921998161823,10.169642199994996,462.8613711001817,True,far-160,12,1,1,0.75,1,up,8,0
76,True,2.1039861999452114,33.0,100.0,800.0,10,True,2,up,0.25,52,0.16900570015423,0.882001900114119,10.16900570015423,466.42471869988367,True,far-160,13,2,2,1.5,1,up,8,0
77,True,5.493114899843931,33.0,50.0,100.0,0,True,1,up,0.25,80,0,1.3065243000164628,0,0.29483190015889704,False,far-rndm,16,1,0,0.75,0.5,up,16,0
78,True,6.2994679000694305,33.0,33.0,100.0,0,False,0,up,0.25,80,0,1.2958679001312703,0,0.31922870012931526,False,far-rnd2,16,6,4,4.5,0.5,up,16,0
79,True,4.391903700074181,33.0,100.0,800.0,5,True,2,up,0.25,76,0.0915200999006629,1.2991187998559326,5.091520099900663,487.9426228001248,True,far-080,16,6,4,4.5,1,up,8,0
80,True,1.9949502998497337,33.0,100.0,800.0,0,True,2,down,0.25,64,0,1.0598941999487579,0,0.47879189997911453,True,far-000,16,6,4,4.5,1,down,8,0
81,True,1.5711986999958754,33.0,50.0,100.0,0,True,1,up,0.25,80,0,1.3019920999649912,0,0.39683680003508925,False,far-rndm,17,2,0,1.5,1.0,up,16,0
82,True,2.299075499875471,33.0,50.0,100.0,0,True,1,up,0.25,80,0,1.3068417001049966,0,0.2252253000624478,True,far-rnd2,17,7,5,5.25,0.5,up,16,0
83,True,4.629412499954924,33.0,100.0,800.0,10,True,2,up,0.25,52,0.17301329993642867,0.87801230000332,10.173013299936429,504.7348239000421,False,far-160,14,3,2,2.25,1,up,8,0
84,True,2.4997894999105483,33.0,100.0,800.0,5,True,2,up,0.25,76,0.09142169984988868,1.2634360999800265,5.091421699849889,509.0086762001738,False,far-080,17,7,4,5.25,1,up,8,0
85,True,3.6085310999769717,33.0,100.0,800.0,0,True,2,down,0.25,64,0,1.0622733999043703,0,0.5279393999371678,True,far-000,17,7,5,5.25,1,down,8,0
86,True,1.881521200062707,33.0,100.0,800.0,10,True,2,up,0.25,52,0.16956420009955764,0.880365899996832,10.169564200099558,517.5893212000374,True,far-160,15,4,3,3.0,1,up,8,0
87,True,4.178672299953178,33.0,33.0,100.0,0,False,0,up,0.25,80,0,1.2929207000415772,0,0.6181824998930097,False,far-rndm,18,1,0,0.75,1.0,up,16,0
88,True,8.094650899991393,33.0,100.0,800.0,0,True,2,down,0.25,64,0,1.060544400010258,0,0.3543528998270631,True,far-000,18,8,6,6.0,1,down,8,0
89,True,4.0664989000651985,33.0,100.0,800.0,5,True,2,up,0.25,80,0.17489979998208582,1.3287615000735968,5.174899799982086,539.2334326000419,True,far-080,18,1,1,0.75,1,up,16,0
