trial,primeCorrect,primeTime,primeDepth,stimDepth,extraDepth,driveFrames,nearToFar,diopters,direction,size,intensity,extraLatency,mainLatency,totalLatency,responseTime,correct,caseLabel,caseTrial,trialsAtStep,stepCorrect,expected,w,direction,stepsize,stepChange
1,True,3.0512771999999586,800.0,50.0,33.0,0,False,2,start,0.25,60,0,1.0061977999998817,1.0061977999998817,0.5660912000000735,True,near-000,1,1,1,0.625,0.5,start,16,0
2,False,7.680169700000079,800.0,50.0,33.0,10,False,2,start,0.25,60,0.17092379999985496,1.0011773999999605,1.1721011999998154,0.45377189999999246,True,near-160,1,1,1,0.625,0.5,start,16,0
3,True,3.2494212999999945,800.0,100.0,50.0,0,False,1,start,0.25,60,0,1.0013085000000501,1.0013085000000501,0.5262495000001763,True,near-rnd2,1,1,1,0.625,0.5,start,16,0
4,True,10.704500899999857,800.0,33.0,50.0,0,False,3,start,0.25,60,0,0.9867740999998205,0.9867740999998205,0.3936145000000124,True,near-rnd3,1,1,1,0.625,0.5,start,16,0
5,True,3.67692390000002,800.0,50.0,33.0,15,False,2,start,0.25,60,0.25113729999998213,1.00141009999993,1.2525473999999122,0.3079389999998057,True,near-240,1,1,1,0.625,0.5,start,16,0
6,True,3.053196200000002,800.0,800.0,50.0,0,False,0,start,0.25,60,0,1.105467100000169,1.105467100000169,5.4002100999998675,True,near-rndm,1,1,1,0.625,0.5,start,16,0
7,True,4.987177400000064,800.0,50.0,33.0,5,False,2,start,0.25,60,0.08835329999988062,1.0007164000001012,1.0890696999999818,2.110302499999989,True,near-080,1,1,1,0.625,0.5,start,16,0
8,True,6.94932289999997,800.0,50.0,33.0,0,False,2,start,0.25,44,0,0.7455630000001747,0.7455630000001747,0.6619377000001805,True,near-000,2,1,1,0.625,1.0,start,16,0
9,True,3.803482199999962,800.0,50.0,33.0,10,False,2,start,0.25,60,0.17164709999997285,1.0079565999999431,1.179603699999916,0.11976870000012241,True,near-160,1,1,1,0.625,0.5,start,16,0
10,True,3.5792575000000397,800.0,800.0,50.0,0,False,0,start,0.25,44,0,0.7308992000000671,0.7308992000000671,0.5498901999999362,True,near-rndm,2,1,1,0.625,1.0,start,16,0
11,True,6.7179621000000225,800.0,33.0,50.0,0,False,3,start,0.25,44,0,0.7285882000001038,0.7285882000001038,0.6434856999999283,True,near-rnd3,2,1,1,0.625,1.0,start,16,0
12,True,6.643785399999842,800.0,50.0,33.0,15,False,2,start,0.25,44,0.254456300000129,0.7556592000000819,1.0101155000002109,0.39815009999983886,True,near-240,2,1,1,0.625,1.0,start,16,0
13,True,3.371958599999971,800.0,50.0,33.0,5,False,2,start,0.25,44,0.08662150000009206,0.7465723000000253,0.8331938000001173,0.32211800000004587,True,near-080,2,1,1,0.625,1.0,start,16,0
14,True,14.32460489999994,800.0,100.0,50.0,0,False,1,start,0.25,44,0,0.7469513999999435,0.7469513999999435,0.3194074000000455,True,near-rnd2,2,1,1,0.625,1.0,start,16,0
15,False,3.3189647000001514,800.0,50.0,33.0,10,False,2,start,0.25,44,0.1686713999999938,0.7460822000000462,0.91475360000004,1.7134516999999505,True,near-160,2,1,1,0.625,1.0,start,16,0
16,True,4.113974399999961,800.0,50.0,33.0,15,False,2,start,0.25,28,0.253543099999888,0.4970484000000397,0.7505914999999277,0.8174337999998897,True,near-240,3,1,1,0.625,1.0,start,16,0
17,True,4.514457499999935,800.0,33.0,50.0,0,False,3,start,0.25,28,0,0.47554079999986243,0.47554079999986243,3.0889372999999978,True,near-rnd3,3,1,1,0.625,1.0,start,16,0
18,True,3.3034009000000424,800.0,50.0,33.0,5,False,2,start,0.25,28,0.09191439999995055,0.5012453000001642,0.5931597000001148,5.501286800000116,False,near-080,3,1,0,0.625,1.0,start,16,0
19,True,4.171125300000085,800.0,800.0,50.0,0,False,0,start,0.25,28,0,0.4774970000000849,0.4774970000000849,1.0527093999999124,True,near-rndm,3,1,1,0.625,1.0,start,16,0
20,True,5.332209299999931,800.0,100.0,50.0,0,False,1,start,0.25,28,0,0.4926546000001508,0.4926546000001508,0.8570823000000019,True,near-rnd2,3,1,1,0.625,1.0,start,16,0
21,False,4.456179499999962,800.0,50.0,33.0,0,False,2,start,0.25,28,0,0.5134802000000036,0.5134802000000036,2.6175428999999895,False,near-000,3,1,0,0.625,1.0,start,16,0
22,False,4.119419899999912,800.0,50.0,33.0,10,False,2,start,0.25,44,0.17019680000021253,0.7563161999999011,0.9265130000001136,0.37242280000009487,True,near-160,2,1,1,0.625,1.0,start,16,0
23,False,3.7514212999999472,800.0,50.0,33.0,5,False,2,up,0.25,44,0.08790799999997034,0.7467772999998488,0.8346852999998191,0.35260730000004514,True,near-080,4,1,1,0.625,0.5,up,16,0
24,True,3.237832600000047,800.0,50.0,33.0,15,False,2,start,0.25,12,0.25055380000003424,0.22996650000004593,0.48052030000008017,1.5244098000000577,True,near-240,4,1,1,0.625,0.5,start,16,0
25,True,2.6281026000001475,800.0,50.0,33.0,0,False,2,start,0.25,28,0,0.48825540000007095,0.48825540000007095,2.365799200000083,True,near-000,3,1,1,0.625,1.0,start,16,0
26,True,4.99396559999991,800.0,100.0,50.0,0,False,1,start,0.25,12,0,0.2398062999998274,0.2398062999998274,1.0801212999999734,True,near-rnd2,4,1,1,0.625,0.5,start,16,0
27,False,4.424533299999894,800.0,800.0,50.0,0,False,0,start,0.25,12,0,0.29318209999996725,0.29318209999996725,0.825049399999898,True,near-rndm,4,1,1,0.625,0.5,start,16,0
28,True,2.759011399999963,800.0,33.0,50.0,0,False,3,start,0.25,12,0,0.21221310000009908,0.21221310000009908,1.1279438999999911,True,near-rnd3,4,1,1,0.625,0.5,start,16,0
29,True,2.3539221000000907,800.0,33.0,50.0,0,False,3,start,0.25,0,0,0.02070840000010321,0.02070840000010321,1.9789068000000043,False,near-rnd3,5,1,0,0.625,0.5,start,16,0
30,False,3.417574100000138,800.0,50.0,33.0,10,False,2,start,0.25,44,0.17042650000007598,0.7519383000001199,0.9223648000001958,0.7260473000001184,True,near-160,2,1,1,0.625,1.0,start,16,0
31,True,4.382297699999981,800.0,50.0,33.0,5,False,2,up,0.25,44,0.08695669999997335,0.7533343000000059,0.8402909999999792,0.3622888999998395,True,near-080,4,1,1,0.625,0.5,up,16,0
32,True,3.893720300000041,800.0,50.0,33.0,0,False,2,start,0.25,12,0,0.23688250000009248,0.23688250000009248,0.9994267000001855,False,near-000,4,1,0,0.625,0.5,start,16,0
33,True,6.7187907,800.0,50.0,33.0,15,False,2,start,0.25,0,0.2537634000000253,0.03864819999989777,0.29241159999992306,0.8312631000001147,False,near-240,5,1,0,0.625,0.5,start,16,0
34,False,7.465462200000047,800.0,800.0,50.0,0,False,0,start,0.25,12,0,0.2170438999999078,0.2170438999999078,0.8420277000000169,True,near-rndm,4,1,1,0.625,0.5,start,16,0
35,False,4.214159800000061,800.0,100.0,50.0,0,False,1,start,0.25,0,0,0.03532900000004702,0.03532900000004702,1.1830165999999736,False,near-rnd2,5,1,0,0.625,0.5,start,16,0
36,False,6.318866200000002,800.0,50.0,33.0,15,False,2,up,0.25,16,0.25143359999992754,0.3054673999999977,0.5569009999999253,1.6862337999998545,False,near-240,6,1,0,0.625,0.5,up,16,0
37,False,5.273586100000102,800.0,50.0,33.0,10,False,2,start,0.25,44,0.17093580000005204,0.7394305000000259,0.9103663000000779,0.731853000000001,True,near-160,2,1,1,0.625,1.0,start,16,0
38,True,3.4713702000001376,800.0,50.0,33.0,0,False,2,up,0.25,28,0,0.4837864000000991,0.4837864000000991,4.533331399999952,False,near-000,5,1,0,0.625,0.5,up,16,0
39,True,3.0062608999999156,800.0,50.0,33.0,5,False,2,up,0.25,44,0.09260109999991073,0.7466385000000173,0.839239599999928,0.4831477000000177,True,near-080,5,2,2,1.25,1.0,up,16,0
40,True,2.654808699999876,800.0,100.0,50.0,0,False,1,start,0.25,0,0,0.03297700000007353,0.03297700000007353,1.8347638000000188,False,near-rnd2,5,1,0,0.625,0.5,start,16,0
41,True,3.131362699999954,800.0,33.0,50.0,0,False,3,up,0.25,16,0,0.2798725000000104,0.2798725000000104,2.2110161999999036,False,near-rnd3,6,1,0,0.625,0.5,up,16,0
42,True,4.852115299999923,800.0,800.0,50.0,0,False,0,start,0.25,12,0,0.22376349999990452,0.22376349999990452,1.3294200999998793,True,near-rndm,4,1,1,0.625,0.5,start,16,0
43,False,4.860267400000112,800.0,50.0,33.0,15,False,2,up,0.25,16,0.24671409999996285,0.3037983000001532,0.550512400000116,0.6966095999998743,True,near-240,6,1,1,0.625,0.5,up,16,0
44,False,2.303642800000034,800.0,100.0,50.0,0,False,1,up,0.25,16,0,0.3000819000001229,0.3000819000001229,0.7709992000000057,True,near-rnd2,6,1,1,0.625,0.5,up,16,0
45,False,3.691564900000003,800.0,50.0,33.0,10,False,2,start,0.25,44,0.16901660000007723,0.7460773999998764,0.9150939999999537,0.405373900000086,True,near-160,2,1,1,0.625,1.0,start,16,0
46,False,8.593649599999935,800.0,50.0,33.0,5,False,2,up,0.25,44,0.09079109999993307,0.7401376999998774,0.8309287999998105,3.653587600000037,False,near-080,6,3,2,1.875,1.0,up,16,0
47,True,10.24683099999993,800.0,50.0,33.0,0,False,2,up,0.25,28,0,0.4816758000001755,0.4816758000001755,0.7957212999999683,True,near-000,6,2,1,1.25,1.0,up,16,0
48,False,8.516564499999959,800.0,800.0,50.0,0,False,0,start,0.25,0,0,0.026471299999911935,0.026471299999911935,2.202377800000022,True,near-rndm,5,1,1,0.625,0.5,start,16,0
49,True,5.751784400000133,800.0,33.0,50.0,0,False,3,up,0.25,16,0,0.2767668000001322,0.2767668000001322,3.6104984999999488,True,near-rnd3,7,2,1,1.25,1.0,up,16,0
50,True,9.724304900000106,800.0,50.0,33.0,0,False,2,up,0.25,28,0,0.4830020000001696,0.4830020000001696,2.188781800000015,True,near-000,7,3,2,1.875,1.0,up,16,0
51,True,2.516208400000096,800.0,50.0,33.0,10,False,2,start,0.25,44,0.1702930000001288,0.7483363000001191,0.9186293000002479,0.33374479999997675,True,near-160,2,1,1,0.625,1.0,start,16,0
52,True,4.54987929999993,800.0,100.0,50.0,0,False,1,up,0.25,16,0,0.2977869000001192,0.2977869000001192,2.1518888000000516,True,near-rnd2,6,1,1,0.625,0.5,up,16,0
53,True,4.863575800000035,800.0,50.0,33.0,15,False,2,up,0.25,16,0.2496697999999924,0.30205099999989216,0.5517207999998845,1.1501855999999862,True,near-240,6,1,1,0.625,0.5,up,16,0
54,True,7.658144900000025,800.0,50.0,33.0,5,False,2,up,0.25,44,0.09084330000018781,0.742764999999963,0.8336083000001508,1.407693899999913,True,near-080,6,3,3,1.875,1.0,up,16,0
55,False,6.543889399999898,800.0,800.0,50.0,0,False,0,start,0.25,0,0,0.025487699999985125,0.025487699999985125,2.2904287999999724,True,near-rndm,5,1,1,0.625,0.5,start,16,0
56,True,2.930605400000104,800.0,33.0,50.0,0,False,3,up,0.25,16,0,0.27906020000000353,0.27906020000000353,1.825689900000043,False,near-rnd3,8,3,1,1.875,1.0,up,16,0
57,True,2.6760801999998876,800.0,100.0,50.0,0,False,1,up,0.25,16,0,0.30802300000004834,0.30802300000004834,0.923135000000002,False,near-rnd2,7,2,1,1.25,1.0,up,16,0
58,True,3.9023999000000913,800.0,800.0,50.0,0,False,0,start,0.25,0,0,0.02532130000008692,0.02532130000008692,1.3581850999999006,False,near-rndm,5,1,0,0.625,0.5,start,16,0
59,False,4.968178099999932,800.0,50.0,33.0,10,False,2,start,0.25,28,0.167436299999963,0.4861787000002096,0.6536150000001726,0.5631947000001674,True,near-160,3,1,1,0.625,1.0,start,16,0
60,True,2.186035899999979,800.0,33.0,50.0,0,False,3,up,0.25,32,0,0.5327740000000176,0.5327740000000176,0.6816142000000127,True,near-rnd3,9,1,1,0.625,0.5,up,16,0
61,True,4.613399599999866,800.0,50.0,33.0,5,False,2,down,0.25,28,0.09230049999996481,0.6340784999999869,0.7263789999999517,0.3405807999999979,True,near-080,7,1,1,0.625,0.5,down,8,0
62,False,3.7784002000000783,800.0,50.0,33.0,15,False,2,up,0.25,16,0.2532229999999345,0.29487440000002607,0.5480973999999605,0.5088097000000289,True,near-240,7,2,2,1.25,1.0,up,16,0
63,True,2.0386475999998765,800.0,50.0,33.0,0,False,2,up,0.25,28,0,0.48205710000002,0.48205710000002,0.6727284000000964,False,near-000,8,4,2,2.5,0.5,up,16,0
64,False,3.1888223000000835,800.0,800.0,50.0,0,False,0,up,0.25,16,0,0.28738589999989017,0.28738589999989017,0.8903788999998596,False,near-rndm,6,1,0,0.625,0.5,up,16,0
65,False,3.0988750000001346,800.0,50.0,33.0,5,False,2,down,0.25,28,0.0864781000000221,0.49446659999989606,0.5809446999999182,0.9503640999998879,True,near-080,8,2,2,1.25,1,down,8,0
66,False,2.932964600000105,800.0,100.0,50.0,0,False,1,up,0.25,16,0,0.3024717000000692,0.3024717000000692,0.6083487999999306,True,near-rnd2,8,3,2,1.875,1.0,up,16,0
67,False,4.116833900000074,800.0,33.0,50.0,0,False,3,up,0.25,32,0,0.5322426999998697,0.5322426999998697,0.801037499999893,False,near-rnd3,10,2,1,1.25,1.0,up,16,0
68,True,11.944303499999933,800.0,50.0,33.0,0,False,2,up,0.25,28,0,0.48660160000008545,0.48660160000008545,0.605657199999996,True,near-000,9,5,3,3.125,0.5,up,16,0
69,True,3.144532500000196,800.0,50.0,33.0,10,False,2,start,0.25,28,0.1742733999999473,0.502183500000001,0.6764568999999483,0.6717026999999689,True,near-160,3,1,1,0.625,1.0,start,16,0
70,True,3.8319910000000164,800.0,50.0,33.0,15,False,2,up,0.25,16,0.2536898000000747,0.29618970000001354,0.5498795000000882,0.7144023999999263,True,near-240,7,2,2,1.25,1.0,up,16,0
71,True,2.971822100000054,800.0,50.0,33.0,10,False,2,start,0.25,12,0.16637050000008458,0.22792099999992388,0.39429150000000845,2.830633200000193,False,near-160,4,1,0,0.625,0.5,start,16,0
72,True,4.620648800000026,800.0,800.0,50.0,0,False,0,up,0.25,16,0,0.2797740999999405,0.2797740999999405,0.8263606999998956,True,near-rndm,6,1,1,0.625,0.5,up,16,0
73,False,13.327316800000062,800.0,50.0,33.0,0,False,2,up,0.25,28,0,0.489368499999955,0.489368499999955,2.0067019999999047,False,near-000,10,6,3,3.75,0.5,up,16,0
74,True,12.485467999999855,800.0,50.0,33.0,15,False,2,up,0.25,16,0.24790319999988242,0.3029295999999704,0.5508327999998528,0.5976263000000017,True,near-240,8,3,3,1.875,1.0,up,16,0
75,True,5.831077499999992,800.0,50.0,33.0,5,False,2,down,0.25,28,0.08803969999985384,0.48813240000004043,0.5761720999998943,1.1414053999999396,False,near-080,8,2,1,1.25,1,down,8,0
76,False,7.632186600000068,800.0,100.0,50.0,0,False,1,up,0.25,16,0,0.29221639999991567,0.29221639999991567,0.9348770999999942,False,near-rnd2,8,3,1,1.875,1.0,up,16,0
77,True,3.894609100000025,800.0,33.0,50.0,0,False,3,up,0.25,32,0,0.5331702999999379,0.5331702999999379,1.2273539000000255,True,near-rnd3,10,2,2,1.25,1.0,up,16,0
78,False,4.718006199999991,800.0,800.0,50.0,0,False,0,up,0.25,16,0,0.2829503000000386,0.2829503000000386,1.0622455999998692,True,near-rndm,7,2,2,1.25,1.0,up,16,0
79,False,44.052388600000086,800.0,50.0,33.0,5,False,2,down,0.25,28,0.09388430000035441,0.48885390000032203,0.5827382000006764,0.6250982999999906,True,near-080,9,3,2,1.875,1,down,8,0
80,False,3.1573050000001786,800.0,50.0,33.0,0,False,2,up,0.25,28,0,0.49470069999961197,0.49470069999961197,0.5112944000002244,True,near-000,10,6,4,3.75,0.5,up,16,0
81,True,4.0924657999999,800.0,100.0,50.0,0,False,1,up,0.25,16,0,0.30548540000017965,0.30548540000017965,0.5318037000001823,True,near-rnd2,8,3,2,1.875,1.0,up,16,0
82,True,1.6090941000002204,800.0,50.0,33.0,10,False,2,up,0.25,28,0.1727576999996927,0.4863995000000614,0.6591571999997541,0.37258750000000873,True,near-160,5,1,1,0.625,0.5,up,16,0
83,True,3.4343352999999297,800.0,50.0,33.0,15,False,2,down,0.25,0,0.2499505999999201,0.03844200000003184,0.2883925999999519,1.8087547000000086,False,near-240,9,1,0,0.625,0.5,down,8,0
84,True,1.973511099999996,800.0,33.0,50.0,0,False,3,up,0.25,32,0,0.5382988999999725,0.5382988999999725,0.8311171999998805,True,near-rnd3,11,3,3,1.875,1.0,up,16,0
85,False,2.4788730000000214,800.0,100.0,50.0,0,False,1,up,0.25,16,0,0.29805009999972754,0.29805009999972754,0.5187344999999368,True,near-rnd2,9,4,3,2.5,0.5,up,16,0
86,True,4.65019379999967,800.0,50.0,33.0,5,False,2,down,0.25,28,0.09376100000008591,0.49045250000017404,0.58421350000026,4.223222699999951,False,near-080,9,3,1,1.875,1,down,8,0
87,True,5.387528100000054,800.0,33.0,50.0,0,False,3,down,0.25,16,0,0.2789784999999938,0.2789784999999938,3.1014070000001084,False,near-rnd3,12,1,0,0.625,0.5,down,8,0
88,False,5.574903400000039,800.0,50.0,33.0,0,False,2,up,0.25,28,0,0.4850162999996428,0.4850162999996428,2.746075000000019,True,near-000,10,6,4,3.75,0.5,up,16,0
89,True,6.757105199999842,800.0,50.0,33.0,10,False,2,up,0.25,28,0.17133749999993597,0.49878949999992983,0.6701269999998658,0.5005021000001761,True,near-160,6,2,2,1.25,1.0,up,16,0
90,True,1.9430513999996037,800.0,50.0,33.0,15,False,2,down,0.25,0,0.24795110000013665,0.03544469999997091,0.28339580000010756,1.0949360999998135,False,near-240,10,2,0,1.25,1,down,8,0
91,True,5.656478200000038,800.0,800.0,50.0,0,False,0,up,0.25,16,0,0.280520499999966,0.280520499999966,2.121693199999754,True,near-rndm,7,2,2,1.25,1.0,up,16,0
92,True,5.023813899999823,800.0,100.0,50.0,0,False,1,up,0.25,16,0,0.29787579999992886,0.29787579999992886,0.7340024999998604,False,near-rnd2,9,4,2,2.5,0.5,up,16,0
93,True,1.9449366999997437,800.0,50.0,33.0,15,False,2,up,0.25,8,0.25188740000021426,0.16289280000000872,0.414780200000223,0.8580489999999372,False,near-240,11,1,0,0.625,1,up,4,0
94,False,7.344783099999859,800.0,800.0,50.0,0,False,0,up,0.25,16,0,0.2845757999998568,0.2845757999998568,1.5453369000001658,False,near-rndm,8,3,2,1.875,1.0,up,16,0
95,False,2.3374211000000287,800.0,33.0,50.0,0,False,3,down,0.25,16,0,0.27922399999988556,0.27922399999988556,0.8885998999999174,False,near-rnd3,13,2,0,1.25,1,down,8,0
96,True,2.583427699999902,800.0,50.0,33.0,5,False,2,down,0.25,28,0.0914997999998377,0.4933666000001722,0.5848664000000099,0.525630000000092,False,near-080,10,4,1,2.5,1,down,8,0
97,False,2.7667139000000134,800.0,50.0,33.0,10,False,2,up,0.25,28,0.17204109999966022,0.6666585999996641,0.8386996999993244,0.5685185000002093,True,near-160,7,3,3,1.875,1.0,up,16,0
98,False,2.3139320000000225,800.0,50.0,33.0,0,False,2,up,0.25,28,0,0.488848500000131,0.488848500000131,0.7991339000000153,True,near-000,10,6,4,3.75,0.5,up,16,0
99,True,3.605989900000168,800.0,50.0,33.0,10,False,2,up,0.25,28,0.17230349999999817,0.4906771999999364,0.6629806999999346,0.6928367999998954,True,near-160,7,3,3,1.875,1.0,up,16,0
100,True,5.360089799999969,800.0,800.0,50.0,0,False,0,up,0.25,16,0,0.3557698999998138,0.3557698999998138,0.5134876000001896,True,near-rndm,8,3,3,1.875,1.0,up,16,0
101,True,3.395144999999957,800.0,100.0,50.0,0,False,1,up,0.25,16,0,0.29802349999999933,0.29802349999999933,0.7847586000002593,True,near-rnd2,10,5,3,3.125,0.5,up,16,0
102,True,16.81537500000013,800.0,50.0,33.0,15,False,2,up,0.25,8,0.2511837000001833,0.17428879999988567,0.425472500000069,0.9881125000001703,True,near-240,12,2,1,1.25,1,up,4,0
103,False,3.6722311999997146,800.0,50.0,33.0,0,False,2,up,0.25,28,0,0.481303200000184,0.481303200000184,0.43326010000009774,True,near-000,10,6,4,3.75,0.5,up,16,0
104,True,3.2125647000002573,800.0,50.0,33.0,5,False,2,up,0.25,36,0.08822929999996632,0.6138737999999648,0.7021030999999311,0.29637730000013107,True,near-080,11,1,1,0.625,1,up,4,0
105,True,2.162108900000021,800.0,33.0,50.0,0,False,3,down,0.25,16,0,0.2796941000001425,0.2796941000001425,5.485509499999807,True,near-rnd3,13,2,1,1.25,1,down,8,0
106,False,5.989069599999766,800.0,50.0,33.0,5,False,2,up,0.25,36,0.09161959999983083,0.6136570999997275,0.7052766999995583,0.43225319999964995,True,near-080,12,2,2,1.25,1,up,4,0
107,True,9.871744199999739,800.0,50.0,33.0,15,False,2,up,0.25,8,0.24715550000018993,0.1755537999997614,0.4227092999999513,0.7292983000002096,False,near-240,13,3,1,1.875,1,up,4,0
108,True,2.7568553999999494,800.0,50.0,33.0,10,False,2,down,0.25,12,0.16858319999982996,0.22851489999993646,0.3970980999997664,0.5797757000000274,True,near-160,8,1,1,0.625,0.5,down,8,0
109,True,9.840615600000092,800.0,33.0,50.0,0,False,3,down,0.25,16,0,0.27896929999997155,0.27896929999997155,1.2189827999995941,False,near-rnd3,14,3,1,1.875,1,down,8,0
110,True,2.6901010999999926,800.0,50.0,33.0,0,False,2,up,0.25,28,0,0.4824294000000009,0.4824294000000009,0.46170789999996487,True,near-000,10,6,4,3.75,0.5,up,16,0
111,True,2.4097844000002624,800.0,800.0,50.0,0,False,0,down,0.25,0,0,0.024014099999931204,0.024014099999931204,1.2798756000001958,False,near-rndm,9,1,0,0.625,0.5,down,8,0
112,True,1.9663229000002502,800.0,100.0,50.0,0,False,1,up,0.25,16,0,0.2914787999998225,0.2914787999998225,0.8018360000000939,False,near-rnd2,11,6,3,3.75,0.5,up,16,0
113,True,5.219938300000194,800.0,50.0,33.0,5,False,2,up,0.25,36,0.09072789999981978,0.6491222999998172,0.739850199999637,0.49153039999964676,False,near-080,12,2,1,1.25,1,up,4,0
114,True,5.928905400000076,800.0,50.0,33.0,0,False,2,up,0.25,28,0,0.4916721999998117,0.4916721999998117,0.530500000000302,True,near-000,11,7,5,4.375,0.5,up,16,0
115,True,5.847112100000231,800.0,100.0,50.0,0,False,1,up,0.25,32,0,0.5607434000003195,0.5607434000003195,0.6672174999998788,False,near-rnd2,12,1,0,0.625,0.5,up,16,0
116,True,37.06644479999977,800.0,33.0,50.0,0,False,3,down,0.25,16,0,0.2744417999997495,0.2744417999997495,1.748465600000145,False,near-rnd3,15,4,1,2.5,1,down,8,0
117,False,4.7998624000001655,800.0,800.0,50.0,0,False,0,down,0.25,0,0,0.025009599999975762,0.025009599999975762,1.6091457000002265,False,near-rndm,10,2,0,1.25,1,down,8,0
118,True,2.5129405000002407,800.0,50.0,33.0,15,False,2,up,0.25,8,0.2504740999997921,0.17062940000005256,0.42110349999984464,0.7741201999997429,True,near-240,14,4,2,2.5,1,up,4,0
119,True,7.953956199999993,800.0,50.0,33.0,10,False,2,down,0.25,12,0.16777899999988222,0.23563310000008642,0.40341209999996863,0.8460919999997714,True,near-160,9,2,2,1.25,1,down,8,0
120,True,7.30032859999983,800.0,800.0,50.0,0,False,0,down,0.25,0,0,0.025892300000123214,0.025892300000123214,1.8722938999999315,False,near-rndm,10,2,0,1.25,1,down,8,0
121,True,4.035891099999844,800.0,50.0,33.0,0,False,2,down,0.25,12,0,0.22989300000017465,0.22989300000017465,1.193103500000234,False,near-000,12,1,0,0.625,0.5,down,8,0
122,False,1.7009252000002562,800.0,50.0,33.0,10,False,2,down,0.25,12,0.24152570000023843,0.2318331000001308,0.47335880000036923,0.6422929000000295,False,near-160,10,3,2,1.875,1,down,8,0
123,False,3.0642993999999817,800.0,50.0,33.0,15,False,2,up,0.25,8,0.25132140000005165,0.16941999999971813,0.4207413999997698,2.5750295999996524,False,near-240,15,5,2,3.125,1,up,4,0
124,True,4.893341699999837,800.0,33.0,50.0,0,False,3,up,0.25,24,0,0.40157500000032087,0.40157500000032087,1.4302486000001409,True,near-rnd3,16,1,1,0.625,1,up,4,0
125,True,2.0673133999998754,800.0,50.0,33.0,5,False,2,up,0.25,36,0.08985630000006495,0.6156129000000874,0.7054692000001523,0.33280290000038804,True,near-080,13,3,2,1.875,1,up,4,0
126,True,3.9621127000000342,800.0,100.0,50.0,0,False,1,up,0.25,32,0,0.5577342000001408,0.5577342000001408,0.42935039999974833,True,near-rnd2,13,2,1,1.25,1.0,up,16,0
127,True,4.877287499999966,800.0,50.0,33.0,5,False,2,up,0.25,36,0.09111510000002454,0.61491500000011,0.7060301000001346,0.47067779999997583,True,near-080,14,4,3,2.5,1,up,4,0
128,True,2.1625457999998616,800.0,100.0,50.0,0,False,1,up,0.25,32,0,0.546459600000162,0.546459600000162,0.47695059999978184,True,near-rnd2,14,3,2,1.875,1.0,up,16,0
129,True,3.7590580000000955,800.0,33.0,50.0,0,False,3,up,0.25,24,0,0.4089051000000836,0.4089051000000836,1.9780753999998524,True,near-rnd3,17,2,2,1.25,1,up,4,0
130,False,4.525943600000119,800.0,50.0,33.0,15,False,2,up,0.25,8,0.24938280000014856,0.16729310000027908,0.41667590000042765,0.7321559000001798,False,near-240,15,5,2,3.125,1,up,4,0
131,True,5.760408599999664,800.0,50.0,33.0,10,False,2,down,0.25,12,0.17352370000025985,0.23034720000032394,0.4038709000005838,1.2819554000002427,False,near-160,10,3,2,1.875,1,down,8,0
132,True,7.534414800000377,800.0,50.0,33.0,0,False,2,down,0.25,12,0,0.22886759999983042,0.22886759999983042,0.7899380000003475,False,near-000,13,2,0,1.25,1,down,8,0
133,True,2.7860900999999103,800.0,800.0,50.0,0,False,0,up,0.25,8,0,0.15661540000019158,0.15661540000019158,0.7776484999999411,True,near-rndm,11,1,1,0.625,1,up,4,0
134,True,4.449750899999799,800.0,33.0,50.0,0,False,3,up,0.25,24,0,0.40910589999975855,0.40910589999975855,0.8380450999998175,False,near-rnd3,18,3,2,1.875,1,up,4,0
135,True,7.093255899999804,800.0,800.0,50.0,0,False,0,up,0.25,8,0,0.15286650000007285,0.15286650000007285,0.98339390000001,True,near-rndm,12,2,2,1.25,1,up,4,0
136,True,2.0237388000000465,800.0,50.0,33.0,15,False,2,up,0.25,8,0.2516493000002811,0.17434000000002925,0.4259893000003103,3.2601073000000724,False,near-240,15,5,2,3.125,1,up,4,0
137,True,3.82802380000021,800.0,50.0,33.0,5,False,2,up,0.25,36,0.08821549999993294,0.6150500999997348,0.7032655999996678,0.5924477000003208,True,near-080,15,5,4,3.125,1,up,4,0
138,True,1.782400399999915,800.0,50.0,33.0,10,False,2,down,0.25,12,0.2922367999999551,0.23696109999991677,0.5291978999998719,2.236022800000228,False,near-160,11,4,2,2.5,1,down,8,0
139,False,34.434934599999906,800.0,100.0,50.0,0,False,1,up,0.25,32,0,0.5545047000000523,0.5545047000000523,1.2890297999997529,False,near-rnd2,15,4,2,2.5,0.5,up,16,0
140,True,3.2318327000002682,800.0,50.0,33.0,0,False,2,up,0.25,20,0,0.35549889999992956,0.35549889999992956,0.7386205999996491,False,near-000,14,1,0,0.625,1,up,4,0
141,False,4.561180499999864,800.0,50.0,33.0,15,False,2,up,0.25,12,0.2475402000000031,0.23315260000026683,0.4806928000002699,1.793406899999809,False,near-240,16,1,0,0.625,1,up,4,0
142,True,1.846078800000214,800.0,33.0,50.0,0,False,3,up,0.25,24,0,0.4004546000001028,0.4004546000001028,0.664195099999688,True,near-rnd3,19,4,3,2.5,1,up,4,0
143,True,3.81126039999981,800.0,100.0,50.0,0,False,1,up,0.25,32,0,0.5525347999996484,0.5525347999996484,0.27475260000028356,True,near-rnd2,15,4,3,2.5,0.5,up,16,0
144,True,2.35287500000004,800.0,50.0,33.0,5,False,2,up,0.25,36,0.0896004000001085,0.6140589000001455,0.703659300000254,0.49838850000014645,True,near-080,16,6,5,3.75,1,up,4,0
145,True,1.725955399999748,800.0,50.0,33.0,10,False,2,down,0.25,12,0.1682781999998042,0.22980009999992035,0.39807829999972455,0.6057921000001443,False,near-160,12,5,2,3.125,1,down,8,0
146,True,4.362785199999962,800.0,50.0,33.0,0,False,2,up,0.25,20,0,0.3574739000000591,0.3574739000000591,0.847588099999939,False,near-000,15,2,0,1.25,1,up,4,0
147,True,2.824380000000019,800.0,800.0,50.0,0,False,0,up,0.25,8,0,0.1581831999997121,0.1581831999997121,1.1932679999999891,False,near-rndm,13,3,2,1.875,1,up,4,0
148,True,1.9101161999997203,800.0,50.0,33.0,5,False,2,down,0.25,32,0.09157189999996262,0.5515809000003173,0.64315280000028,0.4213833999997405,True,near-080,17,1,1,0.625,1,down,2,0
149,False,2.07599829999981,800.0,50.0,33.0,10,False,2,up,0.25,20,0.1717662000000928,0.35815020000018194,0.5299164000002747,1.6470220999999583,True,near-160,13,1,1,0.625,1,up,4,0
150,True,2.53387819999989,800.0,50.0,33.0,15,False,2,up,0.25,12,0.25018709999994826,0.242561200000182,0.49274830000013026,0.6015357999999651,True,near-240,16,1,1,0.625,1,up,4,0
151,False,7.752242600000045,800.0,100.0,50.0,0,False,1,up,0.25,32,0,0.5509833000000981,0.5509833000000981,0.3977401000001919,True,near-rnd2,16,5,4,3.125,0.5,up,16,0
152,False,3.3260732999997344,800.0,50.0,33.0,0,False,2,up,0.25,24,0,0.41434099999969476,0.41434099999969476,0.7085609000000659,True,near-000,16,1,1,0.625,1,up,4,0
153,True,3.526651800000309,800.0,800.0,50.0,0,False,0,up,0.25,8,0,0.15912539999999353,0.15912539999999353,1.2588083999999071,False,near-rndm,14,4,2,2.5,1,up,4,0
154,True,5.111092499999813,800.0,33.0,50.0,0,False,3,up,0.25,24,0,0.4115767999996933,0.4115767999996933,2.2317895999999564,True,near-rnd3,20,5,4,3.125,1,up,4,0
155,False,4.36933930000032,800.0,800.0,50.0,0,False,0,up,0.25,8,0,0.15501599999970495,0.15501599999970495,0.6336648999999852,True,near-rndm,15,5,3,3.125,1,up,4,0
156,True,1.5512558999998873,800.0,50.0,33.0,10,False,2,up,0.25,20,0.17247249999991254,0.3721067999999832,0.5445792999998957,0.5151823999999579,True,near-160,13,1,1,0.625,1,up,4,0
157,True,1.5910495999996783,800.0,50.0,33.0,0,False,2,up,0.25,24,0,0.42299339999999575,0.42299339999999575,1.5039959000000636,False,near-000,16,1,0,0.625,1,up,4,0
158,True,1.825403599999845,800.0,33.0,50.0,0,False,3,up,0.25,24,0,0.41139279999970313,0.41139279999970313,2.3096903999999085,False,near-rnd3,21,6,4,3.75,1,up,4,0
159,True,2.276831100000436,800.0,50.0,33.0,15,False,2,up,0.25,12,0.2531816999999137,0.23832309999988865,0.49150479999980234,0.4723291000000245,True,near-240,17,2,2,1.25,1,up,4,0
160,False,3.8029374999996435,800.0,100.0,50.0,0,False,1,up,0.25,32,0,0.5517712000000756,0.5517712000000756,0.39110219999975016,True,near-rnd2,16,5,4,3.125,0.5,up,16,0
161,False,5.360525800000232,800.0,50.0,33.0,5,False,2,down,0.25,32,0.0895952999999281,0.5526850999999624,0.6422803999998905,0.5585701999998491,True,near-080,18,2,2,1.25,2,down,2,0
162,False,4.284868599999754,800.0,50.0,33.0,15,False,2,up,0.25,12,0.2503930000002583,0.22924299999976938,0.4796360000000277,0.7518146000002162,True,near-240,18,3,3,1.875,1,up,4,0
163,True,1.8830081000000973,800.0,50.0,33.0,10,False,2,up,0.25,20,0.16891640000039843,0.36169790000030844,0.5306143000007069,0.7301152000000002,True,near-160,14,2,2,1.25,1,up,4,0
164,True,2.764945400000215,800.0,800.0,50.0,0,False,0,up,0.25,8,0,0.15171849999978804,0.15171849999978804,0.7211561999997684,True,near-rndm,15,5,3,3.125,1,up,4,0
165,True,6.570802700000058,800.0,100.0,50.0,0,False,1,up,0.25,32,0,0.5583117999999558,0.5583117999999558,0.6365090999997847,True,near-rnd2,16,5,4,3.125,0.5,up,16,0
166,True,3.7722552999998697,800.0,50.0,33.0,5,False,2,down,0.25,32,0.09461069999997562,0.5564343999999437,0.6510450999999193,0.5769912000000659,True,near-080,18,2,2,1.25,2,down,2,0
167,True,2.293355000000247,800.0,50.0,33.0,0,False,2,up,0.25,24,0,0.41906349999999293,0.41906349999999293,0.5422742999999173,True,near-000,17,2,1,1.25,1,up,4,0
168,True,1.7259312999999565,800.0,33.0,50.0,0,False,3,up,0.25,24,0,0.4041477999999188,0.4041477999999188,3.78293930000018,False,near-rnd3,22,7,4,4.375,1,up,4,0
169,True,37.23386140000002,800.0,33.0,50.0,0,False,3,up,0.25,24,0,0.40646719999995184,0.40646719999995184,0.9990554999999404,False,near-rnd3,23,8,4,5.0,1,up,4,0
170,True,4.390280399999938,800.0,800.0,50.0,0,False,0,up,0.25,8,0,0.15488600000026054,0.15488600000026054,0.8961442999998326,True,near-rndm,16,6,4,3.75,1,up,4,0
171,False,5.6799919000000045,800.0,50.0,33.0,0,False,2,up,0.25,24,0,0.42119069999989733,0.42119069999989733,0.4312249000004158,True,near-000,18,3,2,1.875,1,up,4,0
172,True,4.300950599999851,800.0,100.0,50.0,0,False,1,down,0.25,16,0,0.2956875999998374,0.2956875999998374,0.7128483000001324,False,near-rnd2,17,1,0,0.625,0.5,down,8,0
173,True,1.330919300000005,800.0,50.0,33.0,15,False,2,up,0.25,12,0.24961830000029295,0.24344909999990705,0.4930674000002,1.1253900000001522,False,near-240,18,3,2,1.875,1,up,4,0
174,True,27.318037099999856,800.0,50.0,33.0,10,False,2,up,0.25,20,0.17207439999992857,0.3658717999996952,0.5379461999996238,1.2905448999999862,False,near-160,15,3,2,1.875,1,up,4,0
175,True,2.4876322999998592,800.0,50.0,33.0,5,False,2,down,0.25,32,0.09110960000043633,0.5471932000000379,0.6383028000004742,0.3118867000002865,True,near-080,19,3,3,1.875,2,down,2,0
176,True,2.0025166999998874,800.0,50.0,33.0,0,False,2,up,0.25,24,0,0.42151800000010553,0.42151800000010553,0.497193199999856,True,near-000,18,3,2,1.875,1,up,4,0
177,True,3.049326100000144,800.0,50.0,33.0,10,False,2,up,0.25,20,0.17122070000004896,0.3608586000000287,0.5320793000000776,0.538999700000204,True,near-160,16,4,3,2.5,1,up,4,0
178,True,2.57220499999994,800.0,50.0,33.0,5,False,2,down,0.25,32,0.08662920000006125,0.5558679000000666,0.6424971000001278,1.3942025000001195,False,near-080,20,4,3,2.5,2,down,2,0
179,True,2.045569500000056,800.0,50.0,33.0,15,False,2,up,0.25,12,0.24881679999998596,0.2383006000000023,0.48711739999998827,0.45846419999998034,False,near-240,19,4,2,2.5,1,up,4,0
180,True,1.9682462999999188,800.0,800.0,50.0,0,False,0,up,0.25,8,0,0.266333399999894,0.266333399999894,0.9162857999999687,False,near-rndm,17,7,4,4.375,1,up,4,0
181,True,6.245317800000066,800.0,100.0,50.0,0,False,1,down,0.25,16,0,0.2972738999997091,0.2972738999997091,0.5188831000000391,True,near-rnd2,18,2,1,1.25,1,down,8,0
182,True,3.5400792000000365,800.0,33.0,50.0,0,False,3,up,0.25,24,0,0.40585190000001603,0.40585190000001603,1.0694127000001572,False,near-rnd3,24,9,4,5.625,1,up,4,1
183,True,1.9462530999999217,800.0,50.0,33.0,5,False,2,down,0.25,32,0.08901020000030258,0.5497786000000815,0.6387888000003841,0.1983181999999033,True,near-080,21,5,4,3.125,2,down,2,0
184,True,3.250654499999655,800.0,50.0,33.0,10,False,2,up,0.25,20,0.17225420000022496,0.35716139999976804,0.529415599999993,0.5936432000003151,True,near-160,17,5,4,3.125,1,up,4,0
185,True,2.1506492999997135,800.0,50.0,33.0,15,False,2,up,0.25,12,0.2477336000001742,0.23601899999994203,0.4837526000001162,0.5956462999997711,True,near-240,20,5,3,3.125,1,up,4,0
186,True,5.567256400000133,800.0,100.0,50.0,0,False,1,down,0.25,16,0,0.29542220000030284,0.29542220000030284,0.5919844999998531,False,near-rnd2,19,3,1,1.875,1,down,8,0
187,True,5.615344099999675,800.0,800.0,50.0,0,False,0,up,0.25,8,0,0.15969049999966956,0.15969049999966956,0.7458176999998614,True,near-rndm,18,8,5,5.0,1,up,4,0
188,True,1.90646949999973,800.0,33.0,50.0,0,False,3,up,0.25,26,0,0.4380387000001065,0.4380387000001065,5.001205900000059,False,near-rnd3,25,1,0,0.625,1,up,2,0
189,True,3.557895400000234,800.0,50.0,33.0,0,False,2,up,0.25,24,0,0.4294881999999234,0.4294881999999234,0.5134372000002259,True,near-000,19,4,3,2.5,1,up,4,0
190,True,1.9089248000000225,800.0,800.0,50.0,0,False,0,up,0.25,8,0,0.15714710000020204,0.15714710000020204,0.7142385000001923,False,near-rndm,19,9,5,5.625,1,up,4,1
191,True,1.2678735999998025,800.0,50.0,33.0,10,False,2,up,0.25,20,0.17006679999985863,0.36055609999993976,0.5306228999997984,0.5006325999997898,False,near-160,18,6,4,3.75,1,up,4,0
192,True,2.4655691999996634,800.0,50.0,33.0,15,False,2,up,0.25,12,0.24685079999972004,0.23082900000008522,0.47767979999980525,0.989204299999983,False,near-240,21,6,3,3.75,1,up,4,0
193,True,2.3409090999998625,800.0,33.0,50.0,0,False,3,up,0.25,26,0,0.44385700000020734,0.44385700000020734,0.8207477000000836,False,near-rnd3,26,2,0,1.25,2,up,2,0
194,False,5.239621100000022,800.0,100.0,50.0,0,False,1,down,0.25,16,0,0.30078499999990527,0.30078499999990527,0.7122822999999698,True,near-rnd2,20,4,2,2.5,1,down,8,0
195,False,7.012812699999813,800.0,50.0,33.0,0,False,2,up,0.25,24,0,0.4645289000000048,0.4645289000000048,0.43363799999997354,True,near-000,20,5,4,3.125,1,up,4,0
196,True,3.8794025000001966,800.0,50.0,33.0,5,False,2,down,0.25,32,0.09280919999991966,0.5573344999997971,0.6501436999997168,0.8343228000003364,False,near-080,22,6,4,3.75,2,down,2,0
197,True,1.1891001000003598,800.0,33.0,50.0,0,False,3,up,0.25,26,0,0.4358931000001576,0.4358931000001576,2.4685521999999764,False,near-rnd3,27,3,0,1.875,2,up,2,0
198,True,2.3846927999998115,800.0,50.0,33.0,10,False,2,up,0.25,20,0.17038659999980155,0.35450870000022405,0.5248953000000256,0.6441703000000416,True,near-160,19,7,5,4.375,1,up,4,0
199,True,3.7941837000003034,800.0,100.0,50.0,0,False,1,down,0.25,16,0,0.2984569999998712,0.2984569999998712,0.9953646999997545,False,near-rnd2,20,4,1,2.5,1,down,8,0
200,True,5.932470199999898,800.0,50.0,33.0,5,False,2,down,0.25,32,0.08891929999981585,0.5500179000000571,0.638937199999873,0.5951476000000184,True,near-080,23,7,5,4.375,2,down,2,0
201,False,4.409849199999826,800.0,800.0,50.0,0,False,0,up,0.25,8,0,0.15917409999974552,0.15917409999974552,0.7945567999995546,True,near-rndm,20,10,6,6.25,1,up,4,1
202,True,2.3102930000000015,800.0,50.0,33.0,15,False,2,up,0.25,12,0.252279499999986,0.2359919999998965,0.4882714999998825,1.192135899999812,True,near-240,22,7,4,4.375,1,up,4,0
203,False,2.9839852000000064,800.0,50.0,33.0,0,False,2,up,0.25,24,0,0.4194623000003048,0.4194623000003048,0.5075170000000071,True,near-000,20,5,4,3.125,1,up,4,0
204,True,2.0477826999999706,800.0,800.0,50.0,0,False,0,up,0.25,8,0,0.15953069999977743,0.15953069999977743,0.7123139000000265,True,near-rndm,20,10,6,6.25,1,up,4,1
205,False,2.442086200000176,800.0,50.0,33.0,0,False,2,up,0.25,24,0,0.42010990000017046,0.42010990000017046,0.4431299000002582,True,near-000,20,5,4,3.125,1,up,4,0
206,True,5.237716000000091,800.0,50.0,33.0,10,False,2,up,0.25,20,0.16825399999970614,0.3605763999998999,0.528830399999606,0.40503679999983433,True,near-160,20,8,6,5.0,1,up,4,0
207,True,1.7967844999998306,800.0,100.0,50.0,0,False,1,up,0.25,24,0,0.41851309999992736,0.41851309999992736,0.4147376000000804,True,near-rnd2,21,1,1,0.625,1,up,4,0
208,False,6.4277405000002545,800.0,50.0,33.0,5,False,2,down,0.25,32,0.09042090000002645,0.5478273999997327,0.6382482999997592,0.48640249999971275,True,near-080,24,8,6,5.0,2,down,2,0
209,True,3.443081699999766,800.0,50.0,33.0,15,False,2,up,0.25,12,0.2556531999998697,0.23403559999997015,0.48968879999983983,2.2770823000000746,True,near-240,23,8,5,5.0,1,up,4,0
210,False,5.616695499999878,800.0,33.0,50.0,0,False,3,up,0.25,26,0,0.43927560000020094,0.43927560000020094,1.4246530999998868,False,near-rnd3,28,4,0,2.5,2,up,2,0
211,False,2.2502848999997696,800.0,800.0,50.0,0,False,0,up,0.25,8,0,0.1572436999999809,0.1572436999999809,0.7428497999999308,True,near-rndm,21,11,7,6.875,1,up,4,1
212,True,1.508501900000283,800.0,50.0,33.0,0,False,2,up,0.25,24,0,0.4228029000000788,0.4228029000000788,0.9089269999999487,True,near-000,20,5,4,3.125,1,up,4,0
213,False,2.07497340000009,800.0,50.0,33.0,15,False,2,up,0.25,12,0.2511091999999735,0.23541610000029323,0.4865253000002667,0.758815699999559,False,near-240,24,9,5,5.625,1,up,4,1
214,True,1.8170896000001449,800.0,33.0,50.0,0,False,3,up,0.25,26,0,0.43550069999992047,0.43550069999992047,1.0068650999996862,False,near-rnd3,28,4,0,2.5,2,up,2,0
215,True,7.324771800000235,800.0,50.0,33.0,10,False,2,up,0.25,20,0.17102629999999408,0.35914029999958075,0.5301665999995748,0.4746033000001262,True,near-160,21,9,7,5.625,1,up,4,1
216,True,2.351587699999982,800.0,100.0,50.0,0,False,1,up,0.25,24,0,0.41852509999989707,0.41852509999989707,0.7403847999999016,False,near-rnd2,22,2,1,1.25,1,up,4,0
217,True,1.9361845999997058,800.0,50.0,33.0,5,False,2,down,0.25,32,0.09278470000026573,0.5596648999999161,0.6524496000001818,0.35092409999970187,True,near-080,24,8,6,5.0,2,down,2,0
218,True,2.3144366999999875,800.0,50.0,33.0,5,False,2,down,0.25,32,0.09099100000003091,0.5555915999998433,0.6465825999998742,0.3678617000000486,True,near-080,25,9,7,5.625,2,down,2,1
219,True,1.2745374000000993,800.0,800.0,50.0,0,False,0,up,0.25,8,0,0.15606049999996685,0.15606049999996685,0.652918000000227,True,near-rndm,21,11,7,6.875,1,up,4,1
220,True,1.2448045999999522,800.0,50.0,33.0,10,False,2,down,0.25,18,0.16712340000003678,0.3370473999998467,0.5041707999998835,0.5369653000002472,True,near-160,22,1,1,0.625,1,down,1,0
221,True,1.3610444999999345,800.0,50.0,33.0,15,False,2,up,0.25,12,0.24788680000028762,0.24016770000025645,0.48805450000054407,0.5043639000000439,False,near-240,24,9,5,5.625,1,up,4,1
222,True,2.1693796999998085,800.0,100.0,50.0,0,False,1,up,0.25,24,0,0.43066070000031687,0.43066070000031687,0.6280818000000181,True,near-rnd2,23,3,2,1.875,1,up,4,0
223,True,2.5318228000001,800.0,50.0,33.0,0,False,2,up,0.25,24,0,0.5662391000000753,0.5662391000000753,0.5479488000000856,True,near-000,21,6,5,3.75,1,up,4,0
224,True,3.5157475999999406,800.0,33.0,50.0,0,False,3,up,0.25,28,0,0.4718038000000888,0.4718038000000888,7.102472000000034,False,near-rnd3,29,1,0,0.625,2,up,2,0
225,True,8.050483500000155,800.0,100.0,50.0,0,False,1,up,0.25,24,0,0.43673900000021604,0.43673900000021604,0.4797524999999041,True,near-rnd2,24,4,3,2.5,1,up,4,0
226,True,3.8190640999996504,800.0,800.0,50.0,0,False,0,up,0.25,8,0,0.15560350000032486,0.15560350000032486,5.92432430000008,True,near-rndm,22,12,8,7.5,1,up,4,1
227,False,3.292472000000089,800.0,50.0,33.0,15,False,2,up,0.25,12,0.25013339999986783,0.24330280000003768,0.4934361999999055,1.0092055000000073,False,near-240,25,10,5,6.25,1,up,4,1
228,True,2.1757824999999684,800.0,33.0,50.0,0,False,3,up,0.25,28,0,0.46728040000016335,0.46728040000016335,0.9249316000000363,True,near-rnd3,30,2,1,1.25,2,up,2,0
229,True,3.1907375000000684,800.0,50.0,33.0,0,False,2,down,0.25,20,0,0.3633975000002465,0.3633975000002465,0.5586646000001565,True,near-000,22,1,1,0.625,1,down,2,0
230,True,1.8635905000001003,800.0,50.0,33.0,10,False,2,down,0.25,18,0.17034629999989193,0.329493199999888,0.49983949999977995,0.3368164999997134,True,near-160,23,2,2,1.25,2,down,1,0
231,True,3.2671838000001117,800.0,50.0,33.0,5,False,2,down,0.25,32,0.0896773999998004,0.6891804000001684,0.7788577999999688,0.2182730999998057,False,near-080,26,10,7,6.25,2,down,2,1
232,True,1.677456500000062,800.0,50.0,33.0,15,False,2,up,0.25,12,0.24880890000031286,0.23018169999977545,0.4789906000000883,0.6650768999998036,False,near-240,25,10,5,6.25,1,up,4,1
233,True,2.680795699999635,800.0,800.0,50.0,0,False,0,up,0.25,8,0,0.16046060000007856,0.16046060000007856,0.5444130000000769,True,near-rndm,23,13,9,8.125,1,up,4,1
234,True,2.7206921000001785,800.0,100.0,50.0,0,False,1,up,0.25,24,0,0.4214524999997593,0.4214524999997593,0.4244736999999077,True,near-rnd2,25,5,4,3.125,1,up,4,0
235,True,2.7469888999999057,800.0,50.0,33.0,0,False,2,down,0.25,20,0,0.35460220000004483,0.35460220000004483,0.43072040000015477,True,near-000,23,2,2,1.25,2,down,2,0
236,True,3.288398199999847,800.0,50.0,33.0,10,False,2,down,0.25,18,0.16743330000008427,0.3230633999996826,0.49049669999976686,0.3268292000002475,True,near-160,24,3,3,1.875,2,down,1,0
237,True,7.153999999999996,800.0,50.0,33.0,5,False,2,down,0.25,32,0.09306160000005548,0.5522117000000435,0.645273300000099,0.6250058000000536,True,near-080,27,11,8,6.875,2,down,2,1
238,True,1.7060437000000093,800.0,33.0,50.0,0,False,3,up,0.25,28,0,0.4704511999998431,0.4704511999998431,3.3426156999998966,False,near-rnd3,31,3,1,1.875,2,up,2,0
239,True,2.57399549999991,800.0,100.0,50.0,0,False,1,up,0.25,24,0,0.5740366999998514,0.5740366999998514,0.744241399999737,True,near-rnd2,26,6,5,3.75,1,up,4,0
240,True,4.196936199999982,800.0,50.0,33.0,0,False,2,down,0.25,20,0,0.36163699999997334,0.36163699999997334,1.9642186000000947,True,near-000,24,3,3,1.875,2,down,2,0
241,True,2.3737326999998913,800.0,50.0,33.0,10,False,2,down,0.25,18,0.23535510000010618,0.33412540000017543,0.5694805000002816,0.5351083000000472,True,near-160,25,4,4,2.5,2,down,1,0
242,True,2.294683300000088,800.0,800.0,50.0,0,False,0,up,0.25,8,0,0.15497060000006968,0.15497060000006968,0.5647165999998833,True,near-rndm,24,14,10,8.75,1,up,4,1
243,True,2.025262399999974,800.0,50.0,33.0,15,False,2,up,0.25,14,0.2507127999997465,0.26892140000018117,0.5196341999999277,1.0560060000002522,True,near-240,26,1,1,0.625,1,up,2,0
244,True,4.134310899999946,800.0,33.0,50.0,0,False,3,up,0.25,28,0,0.46380749999980253,0.46380749999980253,2.8041674999999486,True,near-rnd3,32,4,2,2.5,2,up,2,0
245,True,3.2049925999999687,800.0,50.0,33.0,5,False,2,down,0.25,32,0.08651509999981499,0.5527521999997589,0.6392672999995739,0.5835038999998687,False,near-080,28,12,8,7.5,2,down,2,1
246,True,4.461708499999986,800.0,33.0,50.0,0,False,3,up,0.25,28,0,0.47129769999992277,0.47129769999992277,1.2245159999997668,False,near-rnd3,33,5,2,3.125,2,up,2,0
247,True,3.5359481000000414,800.0,50.0,33.0,10,False,2,down,0.25,18,0.16969719999997324,0.3372592999999142,0.5069564999998875,0.3032202999997935,True,near-160,26,5,5,3.125,2,down,1,0
248,False,6.259498999999778,800.0,100.0,50.0,0,False,1,down,0.25,20,0,0.3666373000000931,0.3666373000000931,0.5894001000001481,True,near-rnd2,27,1,1,0.625,1,down,2,0
249,False,3.2542594000001372,800.0,50.0,33.0,5,False,2,down,0.25,32,0.08759680000002845,0.5534147000003031,0.6410115000003316,0.4938427999995838,False,near-080,29,13,8,8.125,2,down,2,1
250,True,3.0383131999997204,800.0,50.0,33.0,15,False,2,up,0.25,14,0.25031399999988935,0.26367500000014843,0.5139890000000378,0.5101322000000437,False,near-240,27,2,1,1.25,2,up,2,0
251,True,2.2949962000002415,800.0,50.0,33.0,0,False,2,down,0.25,20,0,0.35410129999991113,0.35410129999991113,0.6985583000000588,False,near-000,25,4,3,2.5,2,down,2,0
252,True,4.682841100000132,800.0,800.0,50.0,0,False,0,down,0.25,6,0,0.12022029999980077,0.12022029999980077,0.7077383999999256,False,near-rndm,25,1,0,0.625,1,down,1,0
253,True,6.479313499999989,800.0,100.0,50.0,0,False,1,down,0.25,20,0,0.3612978999999541,0.3612978999999541,0.4228880999999092,True,near-rnd2,27,1,1,0.625,1,down,2,0
254,True,2.579207100000076,800.0,50.0,33.0,0,False,2,down,0.25,20,0,0.36672889999999825,0.36672889999999825,0.3762346999997135,True,near-000,26,5,4,3.125,2,down,2,0
255,False,4.7921369000000595,800.0,50.0,33.0,5,False,2,down,0.25,32,0.0877519000000575,0.554975800000193,0.6427277000002505,0.5055795999996917,False,near-080,29,13,8,8.125,2,down,2,1
256,True,1.8017626999999266,800.0,50.0,33.0,10,False,2,down,0.25,18,0.17148189999988972,0.32789709999997285,0.49937899999986257,0.28173919999971986,True,near-160,27,6,6,3.75,2,down,1,0
257,True,2.3388519000000088,800.0,800.0,50.0,0,False,0,down,0.25,6,0,0.12019949999967139,0.12019949999967139,1.03669600000012,True,near-rndm,26,2,1,1.25,2,down,1,0
258,True,1.8946626000001743,800.0,33.0,50.0,0,False,3,up,0.25,28,0,0.5533150999999634,0.5533150999999634,1.5514828999998826,False,near-rnd3,34,6,2,3.75,2,up,2,0
259,True,9.164616000000024,800.0,50.0,33.0,15,False,2,up,0.25,14,0.25271840000004886,0.2592604000001302,0.511978800000179,0.6854607000000215,True,near-240,28,3,2,1.875,2,up,2,0
260,True,3.1539927000003445,800.0,100.0,50.0,0,False,1,down,0.25,20,0,0.3611688000000868,0.3611688000000868,0.5822755999997753,True,near-rnd2,28,2,2,1.25,2,down,2,0
261,True,2.833781700000145,800.0,800.0,50.0,0,False,0,down,0.25,6,0,0.1304878999999346,0.1304878999999346,0.9496153000000049,True,near-rndm,27,3,2,1.875,2,down,1,0
262,True,2.038951900000029,800.0,50.0,33.0,0,False,2,down,0.25,20,0,0.3572816999999304,0.3572816999999304,0.5837271999998848,False,near-000,27,6,4,3.75,2,down,2,0
263,True,1.9507025000002614,800.0,50.0,33.0,15,False,2,up,0.25,14,0.24996009999995294,0.264806800000315,0.5147669000002679,0.8458905999996205,False,near-240,29,4,2,2.5,2,up,2,0
264,True,4.141655699999774,800.0,50.0,33.0,10,False,2,down,0.25,17,0.16890860000012253,0.3178987999999663,0.4868074000000888,1.039020800000344,False,near-160,28,1,0,0.625,2,down,1,0
265,False,2.0491681999997127,800.0,33.0,50.0,0,False,3,up,0.25,28,0,0.468627799999922,0.468627799999922,1.5932545999999093,False,near-rnd3,35,7,2,4.375,2,up,2,0
266,False,4.119004000000132,800.0,50.0,33.0,5,False,2,down,0.25,32,0.08850769999980912,0.5529728000001342,0.6414804999999433,0.6021003999999266,False,near-080,29,13,8,8.125,2,down,2,1
267,True,5.109675700000025,800.0,50.0,33.0,15,False,2,up,0.25,14,0.2510077000001729,0.26713980000022275,0.5181475000003957,0.5095661999998811,True,near-240,30,5,3,3.125,2,up,2,0
268,True,4.973262799999702,800.0,100.0,50.0,0,False,1,down,0.25,20,0,0.35744429999977,0.35744429999977,0.7333889999999883,True,near-rnd2,29,3,3,1.875,2,down,2,0
269,True,8.788338000000294,800.0,50.0,33.0,5,False,2,down,0.25,32,0.09308680000003733,0.5542046999999002,0.6472914999999375,0.2969537999997556,True,near-080,29,13,9,8.125,2,down,2,1
270,True,4.084136100000251,800.0,800.0,50.0,0,False,0,down,0.25,6,0,0.12167129999988902,0.12167129999988902,1.1017228999999134,True,near-rndm,28,4,3,2.5,2,down,1,0
271,True,3.647256499999912,800.0,50.0,33.0,10,False,2,down,0.25,17,0.16916589999982534,0.3103565000001254,0.4795223999999507,0.5696921999997357,True,near-160,29,2,1,1.25,2,down,1,0
272,True,6.329457899999852,800.0,50.0,33.0,0,False,2,down,0.25,20,0,0.3507223999999951,0.3507223999999951,0.8014343999998346,False,near-000,28,7,4,4.375,2,down,2,0
273,True,2.635794399999668,800.0,33.0,50.0,0,False,3,up,0.25,28,0,0.4709759000002123,0.4709759000002123,0.6993962999999894,False,near-rnd3,35,7,2,4.375,2,up,2,0
274,True,6.915605800000321,800.0,800.0,50.0,0,False,0,down,0.25,6,0,0.12480589999995573,0.12480589999995573,0.8230322999997952,True,near-rndm,29,5,4,3.125,2,down,1,0
275,False,1.550759399999606,800.0,100.0,50.0,0,False,1,down,0.25,20,0,0.42838949999986653,0.42838949999986653,0.39319860000023255,True,near-rnd2,30,4,4,2.5,2,down,2,0
276,True,1.4744777000000795,800.0,50.0,33.0,15,False,2,up,0.25,14,0.25139790000002904,0.27016539999976885,0.5215632999997979,0.7666674000001876,False,near-240,31,6,3,3.75,2,up,2,0
277,True,1.8765476000003218,800.0,33.0,50.0,0,False,3,up,0.25,30,0,0.5040140999999494,0.5040140999999494,4.016056699999808,True,near-rnd3,36,1,1,0.625,2,up,4,0
278,False,3.0570996999999807,800.0,50.0,33.0,10,False,2,down,0.25,17,0.1725296999998136,0.3126060999998117,0.4851357999996253,0.5181391999999505,False,near-160,30,3,1,1.875,2,down,1,0
279,False,3.546945699999924,800.0,50.0,33.0,5,False,2,down,0.25,32,0.08996950000027937,0.5567736000002697,0.646743100000549,0.256505400000151,True,near-080,30,14,10,8.75,2,down,2,1
280,True,2.747944700000062,800.0,50.0,33.0,0,False,2,down,0.25,20,0,0.3660642999998345,0.3660642999998345,0.39676849999978003,True,near-000,29,8,5,5.0,2,down,2,0
281,False,2.086736799999926,800.0,50.0,33.0,0,False,2,down,0.25,20,0,0.36074009999992995,0.36074009999992995,0.7392311000003247,False,near-000,30,9,5,5.625,2,down,2,1
282,False,2.174017599999843,800.0,33.0,50.0,0,False,3,up,0.25,30,0,0.5025923999996849,0.5025923999996849,0.49833099999978003,True,near-rnd3,37,2,2,1.25,1,up,4,0
283,True,2.420187100000021,800.0,50.0,33.0,15,False,2,up,0.25,14,0.24931429999969623,0.2636317000001327,0.5129459999998289,0.47943690000010974,False,near-240,32,7,3,4.375,2,up,2,0
284,True,1.7448122000000694,800.0,50.0,33.0,5,False,2,down,0.25,32,0.08955479999985982,0.5543736999998146,0.6439284999996744,0.21196310000004814,True,near-080,30,14,10,8.75,2,down,2,1
285,True,1.492736799999875,800.0,800.0,50.0,0,False,0,down,0.25,6,0,0.12423869999975068,0.12423869999975068,1.0394655000000057,True,near-rndm,30,6,5,3.75,2,down,1,0
286,False,3.4068130000000565,800.0,100.0,50.0,0,False,1,down,0.25,20,0,0.36016719999997804,0.36016719999997804,0.45657829999981914,True,near-rnd2,30,4,4,2.5,2,down,2,0
287,True,1.7436276999997062,800.0,50.0,33.0,10,False,2,down,0.25,17,0.1705812000000151,0.31075190000001385,0.48133310000002894,0.6942195999999967,False,near-160,30,3,1,1.875,2,down,1,0
288,True,2.284675399999742,800.0,800.0,50.0,0,False,0,down,0.25,6,0,0.1229895999999826,0.1229895999999826,0.7920638000000508,True,near-rndm,31,7,6,4.375,2,down,1,0
289,True,4.225898700000016,800.0,50.0,33.0,5,False,2,down,0.25,32,0.08856530000002749,0.5565201999997953,0.6450854999998228,0.528008900000259,False,near-080,31,15,10,9.375,2,down,2,1
290,True,1.6588596999999936,800.0,50.0,33.0,10,False,2,down,0.25,17,0.1727629000001798,0.304457100000036,0.4772200000002158,0.9027139999998326,False,near-160,31,4,1,2.5,2,down,1,0
291,False,3.9724943999999596,800.0,100.0,50.0,0,False,1,down,0.25,20,0,0.3611297000002196,0.3611297000002196,0.4113091999997778,True,near-rnd2,30,4,4,2.5,2,down,2,0
292,False,2.798606800000016,800.0,33.0,50.0,0,False,3,up,0.25,30,0,0.5029412000003504,0.5029412000003504,9.096553999999742,False,near-rnd3,37,2,1,1.25,1,up,4,0
293,False,2.911587000000054,800.0,50.0,33.0,0,False,2,down,0.25,20,0,0.3574953000002097,0.3574953000002097,0.4681727000001956,False,near-000,30,9,5,5.625,2,down,2,1
294,True,2.7354733999995915,800.0,50.0,33.0,15,False,2,up,0.25,14,0.25012809999998353,0.2586443000000145,0.508772399999998,0.3611799999998766,True,near-240,33,8,4,5.0,2,up,2,0
295,True,1.912062600000354,800.0,33.0,50.0,0,False,3,up,0.25,30,0,0.4993586000000505,0.4993586000000505,0.19891120000011142,True,near-rnd3,37,2,2,1.25,1,up,4,0
296,True,2.035979199999929,800.0,50.0,33.0,5,False,2,down,0.25,32,0.09081109999988257,0.5516894999996111,0.6425005999994937,0.6224301000002015,False,near-080,32,16,10,10.0,2,down,2,1
297,False,24.69487289999961,800.0,50.0,33.0,0,False,2,down,0.25,20,0,0.36206529999981285,0.36206529999981285,1.1530754999998862,True,near-000,30,9,6,5.625,2,down,2,1
298,True,1.7694022000000587,800.0,100.0,50.0,0,False,1,down,0.25,20,0,0.4130094000001918,0.4130094000001918,0.5262717000000521,True,near-rnd2,30,4,4,2.5,2,down,2,0
299,False,2.33848560000024,800.0,50.0,33.0,15,False,2,up,0.25,14,0.24626230000012583,0.2736697999998796,0.5199321000000054,0.7016365999998015,False,near-240,34,9,4,5.625,2,up,2,1
300,False,2.8489119999999275,800.0,50.0,33.0,10,False,2,down,0.25,17,0.17222949999995762,0.31383210000012696,0.4860616000000846,0.5408791999998357,True,near-160,32,5,2,3.125,2,down,1,0
301,True,3.603870399999778,800.0,800.0,50.0,0,False,0,down,0.25,6,0,0.12862160000031508,0.12862160000031508,0.6127599000001283,True,near-rndm,32,8,7,5.0,2,down,1,0
302,True,2.7549991999999293,800.0,50.0,33.0,5,False,2,down,0.25,32,0.0874573999999484,0.560881800000061,0.6483392000000094,0.47891660000004777,True,near-080,33,17,11,10.625,2,down,2,2
303,True,1.8299207000000024,800.0,800.0,50.0,0,False,0,down,0.25,6,0,0.13012750000007145,0.13012750000007145,0.6423940999998194,True,near-rndm,33,9,8,5.625,2,down,1,1
304,True,4.692133799999738,800.0,33.0,50.0,0,False,3,up,0.25,30,0,0.5001293999998779,0.5001293999998779,0.5244142000001375,False,near-rnd3,38,3,2,1.875,1,up,4,0
305,True,3.9033558999999514,800.0,50.0,33.0,15,False,2,up,0.25,14,0.2521948999997221,0.26799579999988055,0.5201906999996027,0.5752982999997585,False,near-240,34,9,4,5.625,2,up,2,1
306,False,1.552121900000202,800.0,50.0,33.0,10,False,2,down,0.25,17,0.1680765999999494,0.32256649999999354,0.49064309999994293,0.6001693000002888,False,near-160,32,5,1,3.125,2,down,1,0
307,True,1.1991656000000148,800.0,100.0,50.0,0,False,1,down,0.25,20,0,0.3657914999998866,0.3657914999998866,0.3440195999996831,True,near-rnd2,31,5,5,3.125,2,down,2,0
308,True,3.7393337000003157,800.0,50.0,33.0,0,False,2,down,0.25,20,0,0.3608490999999958,0.3608490999999958,0.6985724999999547,False,near-000,30,9,5,5.625,2,down,2,1
309,True,1.580835599999773,800.0,800.0,50.0,0,False,0,down,0.25,5,0,0.11234310000008918,0.11234310000008918,1.0251760000001013,False,near-rndm,34,1,0,0.625,2,down,1,0
