trial,primeCorrect,primeTime,primeDepth,stimDepth,extraDepth,driveFrames,nearToFar,diopters,direction,size,intensity,extraLatency,mainLatency,totalLatency,responseTime,correct,caseLabel,caseTrial,trialsAtStep,stepCorrect,expected,w,direction,stepsize,stepChange
1,True,7.877072799999951,800.0,33.0,50.0,0,False,3,start,0.25,60,0,1.0364294999999402,1.0364294999999402,0.8665228000008938,True,near-rnd3,1,1,1,0.625,0.5,start,16,0
2,True,6.552000300000145,800.0,50.0,33.0,5,False,2,start,0.25,60,0.09225809999952617,0.9945829000007507,1.0868410000002768,0.33072529999844846,True,near-080,1,1,1,0.625,0.5,start,16,0
3,True,5.80085439999857,800.0,100.0,50.0,0,False,1,start,0.25,60,0,0.9961982000004355,0.9961982000004355,0.48679900000024645,True,near-rnd2,1,1,1,0.625,0.5,start,16,0
4,True,1.9451413999995566,800.0,50.0,33.0,10,False,2,start,0.25,60,0.17026260000056936,0.9987478000002739,1.1690104000008432,0.619670900001438,True,near-160,1,1,1,0.625,0.5,start,16,0
5,True,4.266380400000344,800.0,800.0,50.0,0,False,0,start,0.25,60,0,0.9864741000001231,0.9864741000001231,1.564233900000545,True,near-rndm,1,1,1,0.625,0.5,start,16,0
6,True,2.7797146000011708,800.0,50.0,33.0,0,False,2,start,0.25,60,0,0.9955449999997654,0.9955449999997654,0.27775149999979476,True,near-000,1,1,1,0.625,0.5,start,16,0
7,True,3.0804269000000204,800.0,50.0,33.0,15,False,2,start,0.25,60,0.2551493999999366,1.0006460000004154,1.255795400000352,0.40785090000099444,True,near-240,1,1,1,0.625,0.5,start,16,0
8,True,3.6323771000006673,800.0,33.0,50.0,0,False,3,start,0.25,44,0,0.7273906999998871,0.7273906999998871,0.5990031000001181,True,near-rnd3,2,1,1,0.625,1.0,start,16,0
9,False,1.9812905999988288,800.0,100.0,50.0,0,False,1,start,0.25,44,0,0.7519253000009485,0.7519253000009485,0.4273315000009461,True,near-rnd2,2,1,1,0.625,1.0,start,16,0
10,True,5.527123399999255,800.0,50.0,33.0,15,False,2,start,0.25,44,0.25256199999967066,0.751833300000726,1.0043953000003967,0.5426781999995001,True,near-240,2,1,1,0.625,1.0,start,16,0
11,True,3.1725507999999536,800.0,50.0,33.0,10,False,2,start,0.25,44,0.16970470000160276,0.7490247999994608,0.9187295000010636,0.3373702000008052,True,near-160,2,1,1,0.625,1.0,start,16,0
12,True,4.429742399999668,800.0,50.0,33.0,5,False,2,start,0.25,44,0.08835440000075323,0.7446368000000803,0.8329912000008335,0.20635199999924225,True,near-080,2,1,1,0.625,1.0,start,16,0
13,True,1.8280061000004935,800.0,50.0,33.0,0,False,2,start,0.25,44,0,0.7447944000014104,0.7447944000014104,0.11854949999906239,True,near-000,2,1,1,0.625,1.0,start,16,0
14,True,3.5916870000000927,800.0,800.0,50.0,0,False,0,start,0.25,44,0,0.7315725999997085,0.7315725999997085,0.846869400000287,True,near-rndm,2,1,1,0.625,1.0,start,16,0
15,False,5.472224300001471,800.0,50.0,33.0,0,False,2,start,0.25,28,0,0.5534703999983321,0.5534703999983321,0.5998412000008102,True,near-000,3,1,1,0.625,1.0,start,16,0
16,True,2.3063908999993146,800.0,33.0,50.0,0,False,3,start,0.25,28,0,0.47409870000046794,0.47409870000046794,0.9890197000004264,True,near-rnd3,3,1,1,0.625,1.0,start,16,0
17,True,2.671713499999896,800.0,100.0,50.0,0,False,1,start,0.25,44,0,0.7462023000007321,0.7462023000007321,0.47055229999932635,True,near-rnd2,2,1,1,0.625,1.0,start,16,0
18,True,1.7712590000010096,800.0,50.0,33.0,15,False,2,start,0.25,28,0.25243090000003576,0.4974294000003283,0.7498603000003641,0.6974220000010973,True,near-240,3,1,1,0.625,1.0,start,16,0
19,True,2.7642945000006875,800.0,50.0,33.0,10,False,2,start,0.25,28,0.175169599999208,0.4961633000002621,0.6713328999994701,0.43067210000117484,True,near-160,3,1,1,0.625,1.0,start,16,0
20,True,2.4908855999983643,800.0,50.0,33.0,5,False,2,start,0.25,28,0.09367849999944156,0.4870014000007359,0.5806799000001774,0.6853721000006772,True,near-080,3,1,1,0.625,1.0,start,16,0
21,True,7.64577780000036,800.0,800.0,50.0,0,False,0,start,0.25,28,0,0.47283319999951345,0.47283319999951345,0.5279947999988508,True,near-rndm,3,1,1,0.625,1.0,start,16,0
22,True,6.006841599999461,800.0,100.0,50.0,0,False,1,start,0.25,28,0,0.4877697000010812,0.4877697000010812,0.49773650000133784,True,near-rnd2,3,1,1,0.625,1.0,start,16,0
23,True,2.4570702999990317,800.0,50.0,33.0,0,False,2,start,0.25,28,0,0.4859663000006549,0.4859663000006549,0.38442810000015015,True,near-000,3,1,1,0.625,1.0,start,16,0
24,True,2.97913410000001,800.0,33.0,50.0,0,False,3,start,0.25,12,0,0.21411559999978635,0.21411559999978635,2.383377099999052,True,near-rnd3,4,1,1,0.625,0.5,start,16,0
25,True,3.2116171999987273,800.0,50.0,33.0,15,False,2,start,0.25,12,0.25365160000001197,0.24210599999969418,0.49575759999970614,1.0575449999996636,True,near-240,4,1,1,0.625,0.5,start,16,0
26,True,3.513558800001192,800.0,800.0,50.0,0,False,0,start,0.25,12,0,0.2231800999998086,0.2231800999998086,0.807742999999391,True,near-rndm,4,1,1,0.625,0.5,start,16,0
27,True,2.829522199999701,800.0,50.0,33.0,10,False,2,start,0.25,12,0.16836059999877762,0.23660100000051898,0.4049615999992966,1.0872347000004083,False,near-160,4,1,0,0.625,0.5,start,16,0
28,True,3.348641000000498,800.0,50.0,33.0,5,False,2,start,0.25,12,0.09162610000021232,0.23739360000035958,0.3290197000005719,0.9765585999994073,True,near-080,4,1,1,0.625,0.5,start,16,0
29,True,1.9050459999998566,800.0,50.0,33.0,15,False,2,start,0.25,0,0.2488229999999021,0.03906440000173461,0.2878874000016367,1.204258400000981,False,near-240,5,1,0,0.625,0.5,start,16,0
30,True,3.001862999999503,800.0,100.0,50.0,0,False,1,start,0.25,12,0,0.23301199999878008,0.23301199999878008,0.669158000000607,True,near-rnd2,4,1,1,0.625,0.5,start,16,0
31,True,3.866054600001007,800.0,800.0,50.0,0,False,0,start,0.25,0,0,0.025567599999703816,0.025567599999703816,2.085786499999813,False,near-rndm,5,1,0,0.625,0.5,start,16,0
32,True,3.0725435000003927,800.0,50.0,33.0,5,False,2,start,0.25,0,0.08977870000126131,0.03797370000029332,0.12775240000155463,3.0473215999991226,False,near-080,5,1,0,0.625,0.5,start,16,0
33,True,4.113474100000531,800.0,50.0,33.0,10,False,2,up,0.25,28,0.17129399999976158,0.488528399999268,0.6598223999990296,1.0789860999993834,True,near-160,5,1,1,0.625,0.5,up,16,0
34,True,3.567560499999672,800.0,50.0,33.0,0,False,2,start,0.25,12,0,0.23084259999995993,0.23084259999995993,6.088519900000392,False,near-000,4,1,0,0.625,0.5,start,16,0
35,True,5.479198099999849,800.0,33.0,50.0,0,False,3,start,0.25,0,0,0.020039499999256805,0.020039499999256805,5.058131600000706,False,near-rnd3,5,1,0,0.625,0.5,start,16,0
36,True,5.722970400000122,800.0,50.0,33.0,5,False,2,up,0.25,16,0.08876169999894046,0.35966240000016114,0.4484240999991016,1.5621041000013065,True,near-080,6,1,1,0.625,0.5,up,16,0
37,True,2.6762142999996286,800.0,33.0,50.0,0,False,3,up,0.25,16,0,0.27638610000030894,0.27638610000030894,1.1107039999988046,True,near-rnd3,6,1,1,0.625,0.5,up,16,0
38,True,3.492486099999951,800.0,50.0,33.0,0,False,2,up,0.25,28,0,0.4817258999992191,0.4817258999992191,0.626700200000414,True,near-000,5,1,1,0.625,0.5,up,16,0
39,True,2.818648899999971,800.0,50.0,33.0,15,False,2,up,0.25,16,0.2488493999990169,0.2936894999984361,0.542538899997453,0.4512273999989702,True,near-240,6,1,1,0.625,0.5,up,16,0
40,True,2.1805575999987923,800.0,50.0,33.0,10,False,2,up,0.25,28,0.1692155000000639,0.49163729999963834,0.6608527999997023,0.09035260000018752,True,near-160,6,2,2,1.25,1.0,up,16,0
41,True,4.910891900000934,800.0,800.0,50.0,0,False,0,up,0.25,16,0,0.28351999999904365,0.28351999999904365,2.035932099999627,False,near-rndm,6,1,0,0.625,0.5,up,16,0
42,True,2.302110700000412,800.0,100.0,50.0,0,False,1,start,0.25,0,0,0.03675629999997909,0.03675629999997909,1.0731414999991102,False,near-rnd2,5,1,0,0.625,0.5,start,16,0
43,True,3.1107625999993616,800.0,50.0,33.0,15,False,2,up,0.25,16,0.24921700000049896,0.2893082999999024,0.5385253000004013,2.064670199999455,False,near-240,7,2,1,1.25,1.0,up,16,0
44,True,2.7675835999998526,800.0,800.0,50.0,0,False,0,up,0.25,16,0,0.2882575999992696,0.2882575999992696,0.8524834999989253,False,near-rndm,7,2,0,1.25,1.0,up,16,0
45,True,5.882919000001493,800.0,100.0,50.0,0,False,1,up,0.25,16,0,0.2964085999992676,0.2964085999992676,0.7947433999997884,True,near-rnd2,6,1,1,0.625,0.5,up,16,0
46,True,3.1711623999999574,800.0,50.0,33.0,5,False,2,up,0.25,16,0.09286400000019057,0.2947731999993266,0.3876371999995172,2.5144035999983316,True,near-080,7,2,2,1.25,1.0,up,16,0
47,True,1.96723159999965,800.0,33.0,50.0,0,False,3,up,0.25,16,0,0.28071970000019064,0.28071970000019064,4.2051248000007035,False,near-rnd3,7,2,1,1.25,1.0,up,16,0
48,True,2.6491844000011042,800.0,50.0,33.0,10,False,2,up,0.25,28,0.24662660000103642,0.4915760000003502,0.7382026000013866,0.10724549999940791,True,near-160,7,3,3,1.875,1.0,up,16,0
49,True,7.19060890000037,800.0,50.0,33.0,0,False,2,up,0.25,28,0,0.48300080000080925,0.48300080000080925,0.6874635999993188,True,near-000,6,2,2,1.25,1.0,up,16,0
50,True,4.154130400000213,800.0,50.0,33.0,5,False,2,up,0.25,16,0.09581249999973807,0.3086354000006395,0.40444790000037756,0.34266700000080164,True,near-080,8,3,3,1.875,1.0,up,16,0
51,True,3.0860303999997996,800.0,50.0,33.0,10,False,2,down,0.25,12,0.16961240000091493,0.23073529999965103,0.40034770000056596,0.9221477999999479,False,near-160,8,1,0,0.625,0.5,down,8,0
52,True,2.9775406000007933,800.0,800.0,50.0,0,False,0,up,0.25,32,0,0.5478261000007478,0.5478261000007478,0.7441189999990456,True,near-rndm,8,1,1,0.625,1.0,up,16,0
53,True,3.7833566999997856,800.0,50.0,33.0,15,False,2,up,0.25,16,0.25017990000014834,0.29767939999874216,0.5478592999988905,3.5129166999995505,False,near-240,8,3,1,1.875,1.0,up,16,0
54,True,6.474336499999481,800.0,100.0,50.0,0,False,1,up,0.25,16,0,0.3023488999988331,0.3023488999988331,1.4231426999995165,True,near-rnd2,7,2,2,1.25,1.0,up,16,0
55,True,7.162449199999173,800.0,50.0,33.0,0,False,2,up,0.25,28,0,0.4872698999988643,0.4872698999988643,0.4580566999993607,True,near-000,7,3,3,1.875,1.0,up,16,0
56,True,3.8277197999996133,800.0,33.0,50.0,0,False,3,up,0.25,16,0,0.27714930000001914,0.27714930000001914,5.50527510000029,True,near-rnd3,8,3,2,1.875,1.0,up,16,0
57,True,6.3300221000008605,800.0,50.0,33.0,10,False,2,down,0.25,12,0.1738110999995115,0.23420960000112245,0.40802070000063395,0.7323039000002609,True,near-160,9,2,1,1.25,1,down,8,0
58,True,2.2622900000005757,800.0,50.0,33.0,15,False,2,up,0.25,32,0.2519732999990083,0.5633927999988373,0.8153660999978456,0.15033910000056494,True,near-240,9,1,1,0.625,0.5,up,16,0
59,True,2.5534377000003587,800.0,800.0,50.0,0,False,0,up,0.25,32,0,0.5436941999996634,0.5436941999996634,1.0438501999997243,False,near-rndm,9,2,1,1.25,1.0,up,16,0
60,True,3.6369426999990537,800.0,33.0,50.0,0,False,3,up,0.25,16,0,0.28173190000052273,0.28173190000052273,0.927852000000712,False,near-rnd3,9,4,2,2.5,0.5,up,16,0
61,True,2.8808409000012034,800.0,100.0,50.0,0,False,1,up,0.25,16,0,0.299278399999821,0.299278399999821,0.9091718999989098,True,near-rnd2,8,3,3,1.875,1.0,up,16,0
62,True,7.59848410000086,800.0,50.0,33.0,5,False,2,down,0.25,0,0.09058379999987665,0.03595060000043304,0.1265344000003097,2.011203000000023,False,near-080,9,1,0,0.625,0.5,down,8,0
63,True,2.868821600000956,800.0,50.0,33.0,0,False,2,down,0.25,12,0,0.23315249999905063,0.23315249999905063,0.996618799999851,True,near-000,8,1,1,0.625,0.5,down,8,0
64,True,1.6966582999993989,800.0,50.0,33.0,0,False,2,down,0.25,12,0,0.23423250000087137,0.23423250000087137,0.7405364999995072,True,near-000,9,2,2,1.25,1,down,8,0
65,True,2.315631699999358,800.0,800.0,50.0,0,False,0,up,0.25,32,0,0.5451474000001326,0.5451474000001326,0.3288200999995752,True,near-rndm,10,3,2,1.875,1.0,up,16,0
66,True,3.132837199998903,800.0,50.0,33.0,10,False,2,down,0.25,12,0.1692585999990115,0.2354427999998734,0.4047013999988849,1.4837048999997933,False,near-160,10,3,1,1.875,1,down,8,0
67,True,2.085527999999613,800.0,33.0,50.0,0,False,3,up,0.25,16,0,0.2790036999995209,0.2790036999995209,0.7429174999997485,True,near-rnd3,10,5,3,3.125,0.5,up,16,0
68,True,6.314704599999459,800.0,50.0,33.0,15,False,2,up,0.25,32,0.2537725000001956,0.5476163000002998,0.8013888000004954,0.258752399999139,True,near-240,10,2,2,1.25,1.0,up,16,0
69,True,5.530838999999105,800.0,50.0,33.0,5,False,2,down,0.25,0,0.09411899999940943,0.034604700000272715,0.12872369999968214,1.458578399999169,False,near-080,10,2,0,1.25,1,down,8,0
70,True,2.884225100000549,800.0,100.0,50.0,0,False,1,down,0.25,0,0,0.036562199999025324,0.036562199999025324,0.8259655999991082,False,near-rnd2,9,1,0,0.625,0.5,down,8,0
71,True,3.7782170999998925,800.0,50.0,33.0,0,False,2,down,0.25,12,0,0.23316909999994095,0.23316909999994095,0.7986608999999589,True,near-000,10,3,3,1.875,1,down,8,0
72,True,4.507687100000112,800.0,100.0,50.0,0,False,1,down,0.25,0,0,0.035545900000215624,0.035545900000215624,1.1127866999995604,False,near-rnd2,10,2,0,1.25,1,down,8,0
73,True,2.2134765999999217,800.0,50.0,33.0,5,False,2,up,0.25,8,0.17620440000064264,0.17486680000001797,0.3510712000006606,1.68586680000044,False,near-080,11,1,0,0.625,1,up,4,0
74,True,2.561711100001048,800.0,50.0,33.0,10,False,2,down,0.25,12,0.1736813000006805,0.3862009999993461,0.5598823000000266,0.4471763000001374,True,near-160,11,4,2,2.5,1,down,8,0
75,True,2.9442453000010573,800.0,33.0,50.0,0,False,3,up,0.25,16,0,0.2759881999991194,0.2759881999991194,1.221872699999949,True,near-rnd3,11,6,4,3.75,0.5,up,16,0
76,True,4.842834200000652,800.0,800.0,50.0,0,False,0,up,0.25,32,0,0.5384727000000566,0.5384727000000566,0.885453900000357,False,near-rndm,11,4,2,2.5,0.5,up,16,0
77,True,6.983910400000241,800.0,50.0,33.0,15,False,2,up,0.25,32,0.25104670000109763,0.5583961000011186,0.8094428000022162,0.4163944000010815,True,near-240,11,3,3,1.875,1.0,up,16,0
78,True,4.285916700000598,800.0,33.0,50.0,0,False,3,up,0.25,16,0,0.27848529999937455,0.27848529999937455,1.236526500000764,True,near-rnd3,12,7,5,4.375,0.5,up,16,0
79,True,3.8248055999993085,800.0,800.0,50.0,0,False,0,up,0.25,32,0,0.5447545000006357,0.5447545000006357,0.7943880999991961,True,near-rndm,12,5,3,3.125,0.5,up,16,0
80,True,4.019289700001536,800.0,50.0,33.0,0,False,2,down,0.25,4,0,0.09752420000040729,0.09752420000040729,0.7046849999987899,True,near-000,11,1,1,0.625,1,down,8,0
81,True,6.570364900000641,800.0,50.0,33.0,5,False,2,up,0.25,8,0.09362849999888567,0.1674734999996872,0.26110199999857286,2.3701741000004404,True,near-080,12,2,1,1.25,1,up,4,0
82,True,6.984881200000018,800.0,50.0,33.0,10,False,2,down,0.25,12,0.16765339999983553,0.2426395999991655,0.41029299999900104,0.4082914000009623,True,near-160,12,5,3,3.125,1,down,8,0
83,True,3.744630600000164,800.0,100.0,50.0,0,False,1,up,0.25,8,0,0.17099330000019108,0.17099330000019108,1.6675556999998662,True,near-rnd2,11,1,1,0.625,1,up,4,0
84,True,5.807130099999995,800.0,50.0,33.0,15,False,2,down,0.25,16,0.25045809999937774,0.29981129999941913,0.5502693999987969,0.6733371999998781,False,near-240,12,1,0,0.625,0.5,down,8,0
85,True,4.195996500000547,800.0,50.0,33.0,10,False,2,down,0.25,12,0.16674539999985427,0.23965879999923345,0.4064041999990877,0.4792995999996492,False,near-160,13,6,3,3.75,1,down,8,0
86,True,5.614695700000084,800.0,800.0,50.0,0,False,0,up,0.25,32,0,0.5401535000000877,0.5401535000000877,0.795012399999905,False,near-rndm,13,6,3,3.75,0.5,up,16,0
87,True,7.878395699999601,800.0,50.0,33.0,15,False,2,down,0.25,16,0.2541075000008277,0.29699390000132553,0.5511014000021532,0.46992299999874376,False,near-240,13,2,0,1.25,1,down,8,0
88,True,3.099745299999995,800.0,50.0,33.0,5,False,2,up,0.25,8,0.08662220000041998,0.16470500000104948,0.25132720000146946,0.70109599999887,True,near-080,13,3,2,1.875,1,up,4,0
89,True,3.809114800000316,800.0,33.0,50.0,0,False,3,down,0.25,0,0,0.018144100000426988,0.018144100000426988,9.16644880000058,False,near-rnd3,13,1,0,0.625,0.5,down,8,0
90,True,4.237055600000531,800.0,50.0,33.0,0,False,2,down,0.25,4,0,0.10316840000086813,0.10316840000086813,0.7718918999999005,False,near-000,12,2,1,1.25,1,down,8,0
91,True,5.100648399999045,800.0,100.0,50.0,0,False,1,up,0.25,8,0,0.16658280000046943,0.16658280000046943,0.7326928000002226,True,near-rnd2,12,2,2,1.25,1,up,4,0
92,True,3.780427599998802,800.0,50.0,33.0,10,False,2,down,0.25,12,0.16864619999978459,0.22901119999914954,0.3976573999989341,4.083189499999207,False,near-160,14,7,3,4.375,1,down,8,0
93,True,3.375304599998344,800.0,800.0,50.0,0,False,0,up,0.25,48,0,0.7942471000005753,0.7942471000005753,3.478160900000148,True,near-rndm,14,1,1,0.625,0.5,up,16,0
94,True,4.715828799999144,800.0,33.0,50.0,0,False,3,down,0.25,0,0,0.016860499999893364,0.016860499999893364,2.1660082999987935,False,near-rnd3,14,2,0,1.25,1,down,8,0
95,True,7.368010599999252,800.0,100.0,50.0,0,False,1,up,0.25,8,0,0.19398609999916516,0.19398609999916516,1.2415891000000556,True,near-rnd2,13,3,3,1.875,1,up,4,0
96,True,3.1887987999998586,800.0,50.0,33.0,0,False,2,down,0.25,4,0,0.09481740000046557,0.09481740000046557,0.9595156000013958,False,near-000,13,3,1,1.875,1,down,8,0
97,True,5.146897900000113,800.0,50.0,33.0,5,False,2,up,0.25,8,0.09112669999922218,0.17134270000133256,0.26246940000055474,1.6291452999994362,False,near-080,14,4,2,2.5,1,up,4,0
98,True,2.7627360000005865,800.0,50.0,33.0,15,False,2,up,0.25,24,0.25180770000042685,0.4301575999998022,0.681965300000229,1.1759390000006533,False,near-240,14,1,0,0.625,1,up,4,0
99,True,5.696728099999746,800.0,800.0,50.0,0,False,0,up,0.25,48,0,0.8011022999999113,0.8011022999999113,0.6656887000008282,True,near-rndm,15,2,2,1.25,1.0,up,16,0
100,True,2.1049555000008695,800.0,50.0,33.0,5,False,2,up,0.25,8,0.09319460000006075,0.1734298999999737,0.26662450000003446,1.225848499998392,False,near-080,15,5,2,3.125,1,up,4,0
101,True,4.416360000001077,800.0,50.0,33.0,10,False,2,up,0.25,20,0.16707779999887862,0.3627391999998508,0.5298169999987294,0.7754028999988805,True,near-160,15,1,1,0.625,1,up,4,0
102,True,5.41117420000046,800.0,33.0,50.0,0,False,3,up,0.25,8,0,0.15076410000074247,0.15076410000074247,8.20003109999925,False,near-rnd3,15,1,0,0.625,1,up,4,0
103,True,3.597316100000171,800.0,50.0,33.0,15,False,2,up,0.25,24,0.24704430000019784,0.436991599999601,0.6840358999997989,0.6889150999995763,True,near-240,15,2,1,1.25,1,up,4,0
104,True,10.348529900000358,800.0,50.0,33.0,0,False,2,down,0.25,4,0,0.10386689999904775,0.10386689999904775,1.8837173000010807,False,near-000,14,4,1,2.5,1,down,8,0
105,True,6.082958099999814,800.0,100.0,50.0,0,False,1,down,0.25,4,0,0.1127902999996877,0.1127902999996877,0.7443285000008473,True,near-rnd2,14,1,1,0.625,1,down,2,0
106,True,4.672299899999416,800.0,33.0,50.0,0,False,3,up,0.25,8,0,0.15307540000139852,0.15307540000139852,2.0762774999984686,False,near-rnd3,16,2,0,1.25,1,up,4,0
107,True,3.40677340000002,800.0,800.0,50.0,0,False,0,up,0.25,48,0,0.8009712999992189,0.8009712999992189,0.1826569999993808,False,near-rndm,16,3,2,1.875,1.0,up,16,0
108,True,4.220608699999502,800.0,50.0,33.0,0,False,2,up,0.25,12,0,0.23223289999987173,0.23223289999987173,0.5905266999998275,True,near-000,15,1,1,0.625,1,up,4,0
109,True,5.784667400001126,800.0,100.0,50.0,0,False,1,down,0.25,4,0,0.10677079999913985,0.10677079999913985,0.9607555000002321,False,near-rnd2,15,2,1,1.25,2,down,2,0
110,True,5.6176005999986955,800.0,50.0,33.0,10,False,2,up,0.25,20,0.17207750000125088,0.3561532999992778,0.5282308000005287,0.6747254999991128,True,near-160,16,2,2,1.25,1,up,4,0
111,True,5.231827899999189,800.0,50.0,33.0,15,False,2,up,0.25,24,0.25128419999964535,0.41932460000134597,0.6706088000009913,0.7726951000004192,False,near-240,16,3,1,1.875,1,up,4,0
112,True,7.53586340000038,800.0,50.0,33.0,5,False,2,up,0.25,12,0.08993009999903734,0.24037940000016533,0.33030949999920267,1.0837718000002496,False,near-080,16,1,0,0.625,1,up,4,0
113,True,9.58068849999836,800.0,100.0,50.0,0,False,1,down,0.25,4,0,0.10317570000006526,0.10317570000006526,0.8735901000000013,True,near-rnd2,16,3,2,1.875,2,down,2,0
114,True,6.939010500000222,800.0,50.0,33.0,5,False,2,up,0.25,12,0.08797220000087691,0.24055720000069414,0.32852940000157105,0.9103008000001864,False,near-080,17,2,0,1.25,1,up,4,0
115,True,2.1684213999997155,800.0,50.0,33.0,10,False,2,up,0.25,20,0.17237659999955213,0.3582053999998607,0.5305819999994128,1.0794399000005797,False,near-160,17,3,2,1.875,1,up,4,0
116,True,4.628268100001151,800.0,33.0,50.0,0,False,3,up,0.25,12,0,0.2125969000007899,0.2125969000007899,2.232043399999384,False,near-rnd3,17,1,0,0.625,1,up,4,0
117,True,2.12084109999887,800.0,800.0,50.0,0,False,0,up,0.25,48,0,0.7999557000002824,0.7999557000002824,0.45044079999934183,True,near-rndm,17,4,3,2.5,0.5,up,16,0
118,True,2.1898983999999473,800.0,50.0,33.0,0,False,2,up,0.25,12,0,0.23254379999889352,0.23254379999889352,0.5569121999997151,True,near-000,16,2,2,1.25,1,up,4,0
119,True,2.021356299999752,800.0,50.0,33.0,15,False,2,up,0.25,24,0.2533616999990045,0.43101110000134213,0.6843728000003466,1.0319713999997475,False,near-240,17,4,1,2.5,1,up,4,0
120,True,1.5909826000006433,800.0,50.0,33.0,10,False,2,up,0.25,20,0.1674617999997281,0.38384270000096876,0.5513045000006969,0.2442367000003287,True,near-160,18,4,3,2.5,1,up,4,0
121,True,3.262223699999595,800.0,50.0,33.0,0,False,2,up,0.25,12,0,0.22858430000087537,0.22858430000087537,0.5698535999999876,True,near-000,17,3,3,1.875,1,up,4,0
122,True,2.201292399999147,800.0,50.0,33.0,15,False,2,up,0.25,28,0.2535109000000375,0.49451109999972687,0.7480219999997644,0.20238830000016605,True,near-240,18,1,1,0.625,1,up,4,0
123,True,2.4113255000011122,800.0,800.0,50.0,0,False,0,up,0.25,48,0,0.7932739000007132,0.7932739000007132,0.4720364000004338,True,near-rndm,18,5,4,3.125,0.5,up,16,0
124,True,3.503795099999479,800.0,50.0,33.0,5,False,2,up,0.25,16,0.16483289999996487,0.30383009999968635,0.4686629999996512,0.43986799999947834,True,near-080,18,1,1,0.625,1,up,4,0
125,True,4.431910799999969,800.0,33.0,50.0,0,False,3,up,0.25,12,0,0.21414929999991728,0.21414929999991728,1.6715527000014845,True,near-rnd3,18,2,1,1.25,1,up,4,0
126,True,3.8043223999993643,800.0,100.0,50.0,0,False,1,down,0.25,4,0,0.10721190000003844,0.10721190000003844,0.9226194999992003,True,near-rnd2,17,4,3,2.5,2,down,2,0
127,True,2.847931200001767,800.0,50.0,33.0,0,False,2,down,0.25,8,0,0.16153180000037537,0.16153180000037537,0.8418987000004563,True,near-000,18,1,1,0.625,1,down,2,0
128,True,2.993490599999859,800.0,50.0,33.0,10,False,2,up,0.25,20,0.16998939999939466,0.3678605000004609,0.5378498999998556,0.6741996000000654,True,near-160,19,5,4,3.125,1,up,4,0
129,True,2.6646139999993466,800.0,800.0,50.0,0,False,0,down,0.25,32,0,0.5433363000011013,0.5433363000011013,0.47103450000031444,True,near-rndm,19,1,1,0.625,0.5,down,8,0
130,True,2.0324589000010747,800.0,100.0,50.0,0,False,1,down,0.25,4,0,0.104645100000198,0.104645100000198,0.6869616999993013,True,near-rnd2,18,5,4,3.125,2,down,2,0
131,True,3.556241800000862,800.0,33.0,50.0,0,False,3,up,0.25,12,0,0.21249010000065027,0.21249010000065027,0.9974770999997418,True,near-rnd3,19,3,2,1.875,1,up,4,0
132,True,4.847476099999767,800.0,50.0,33.0,15,False,2,up,0.25,28,0.2481006999987585,0.49311200000011013,0.7412126999988686,0.8018699000003835,True,near-240,19,2,2,1.25,1,up,4,0
133,True,1.3880712000009225,800.0,50.0,33.0,5,False,2,up,0.25,16,0.09238550000009127,0.2939564000007522,0.38634190000084345,0.5827592000005097,True,near-080,19,2,2,1.25,1,up,4,0
134,False,3.81139549999898,800.0,800.0,50.0,0,False,0,down,0.25,32,0,0.5443567000002076,0.5443567000002076,0.6818487000000459,True,near-rndm,20,2,2,1.25,1,down,8,0
135,True,3.10943959999895,800.0,50.0,33.0,10,False,2,up,0.25,20,0.1679344999993191,0.3646339999995689,0.532568499998888,0.6126697999989119,True,near-160,20,6,5,3.75,1,up,4,0
136,True,5.611260600000605,800.0,100.0,50.0,0,False,1,down,0.25,4,0,0.11258470000029774,0.11258470000029774,1.6692548000009992,False,near-rnd2,19,6,4,3.75,2,down,2,0
137,True,2.2364180000004126,800.0,50.0,33.0,5,False,2,up,0.25,16,0.08843829999932495,0.3057511000006343,0.3941893999999593,0.800751400000081,False,near-080,20,3,2,1.875,1,up,4,0
138,True,2.172406100000444,800.0,33.0,50.0,0,False,3,up,0.25,12,0,0.21054709999953047,0.21054709999953047,2.5371536999991804,False,near-rnd3,20,4,2,2.5,1,up,4,0
139,True,2.9357072000002518,800.0,50.0,33.0,0,False,2,down,0.25,8,0,0.16218379999918398,0.16218379999918398,0.7090033999993466,True,near-000,19,2,2,1.25,2,down,2,0
140,True,4.156430200000614,800.0,50.0,33.0,15,False,2,up,0.25,28,0.2533693999994284,0.4888163000014174,0.7421857000008458,0.6835129999999481,True,near-240,20,3,3,1.875,1,up,4,0
141,True,5.30967309999869,800.0,100.0,50.0,0,False,1,down,0.25,4,0,0.10776239999904647,0.10776239999904647,0.5961872999996558,True,near-rnd2,20,7,5,4.375,2,down,2,0
142,True,2.4892529000007926,800.0,50.0,33.0,15,False,2,down,0.25,24,0.24824740000076417,0.4226936000013666,0.6709410000021307,0.4987275999992562,True,near-240,21,1,1,0.625,1,down,2,0
143,True,4.355744399999821,800.0,800.0,50.0,0,False,0,down,0.25,32,0,0.5405842000000121,0.5405842000000121,0.7441333000006125,False,near-rndm,20,2,1,1.25,1,down,8,0
144,False,2.830534099999568,800.0,33.0,50.0,0,False,3,up,0.25,12,0,0.21624049999991257,0.21624049999991257,1.7563093999997363,False,near-rnd3,21,5,2,3.125,1,up,4,0
145,True,1.8429744000004575,800.0,50.0,33.0,5,False,2,up,0.25,16,0.09277339999971446,0.2951658000001771,0.38793919999989157,0.6989582999995037,False,near-080,21,4,2,2.5,1,up,4,0
146,True,5.989434099999926,800.0,50.0,33.0,0,False,2,down,0.25,8,0,0.16381399999954738,0.16381399999954738,0.7175129000006564,False,near-000,20,3,2,1.875,2,down,2,0
147,False,2.612073300000702,800.0,50.0,33.0,10,False,2,down,0.25,16,0.17475580000063928,0.29456200000095123,0.4693178000015905,0.5160324000007677,True,near-160,21,1,1,0.625,1,down,2,0
148,True,4.248841700000412,800.0,33.0,50.0,0,False,3,up,0.25,12,0,0.21117129999947792,0.21117129999947792,2.4225907000000007,False,near-rnd3,21,5,2,3.125,1,up,4,0
149,True,2.444671700000981,800.0,50.0,33.0,5,False,2,up,0.25,16,0.08783190000031027,0.3054323000014847,0.39326420000179496,0.994317200000296,True,near-080,22,5,3,3.125,1,up,4,0
150,True,2.5243347000014182,800.0,50.0,33.0,0,False,2,down,0.25,8,0,0.16723389999970095,0.16723389999970095,1.5035772999999608,True,near-000,21,4,3,2.5,2,down,2,0
151,True,5.985815099998945,800.0,50.0,33.0,10,False,2,down,0.25,16,0.16903579999961948,0.3005855999999767,0.4696213999995962,1.321403799998734,False,near-160,21,1,0,0.625,1,down,2,0
152,True,3.447512700000516,800.0,50.0,33.0,15,False,2,down,0.25,24,0.25137159999940195,0.43160229999921285,0.6829738999986148,5.213304299999436,False,near-240,22,2,1,1.25,2,down,2,0
153,True,2.307552400001441,800.0,800.0,50.0,0,False,0,down,0.25,32,0,0.5386462999995274,0.5386462999995274,0.3008466999999655,True,near-rndm,21,3,2,1.875,1,down,8,0
154,True,2.1563102999989496,800.0,100.0,50.0,0,False,1,down,0.25,4,0,0.10168870000052266,0.10168870000052266,0.8266242999998212,True,near-rnd2,21,8,6,5.0,2,down,2,0
155,True,2.291092400000707,800.0,33.0,50.0,0,False,3,up,0.25,16,0,0.36654400000043097,0.36654400000043097,0.6814113999989786,True,near-rnd3,22,1,1,0.625,1,up,4,0
156,True,1.3691902999999002,800.0,50.0,33.0,5,False,2,up,0.25,16,0.09061670000119193,0.30714310000075784,0.39775980000194977,0.5144529999997758,True,near-080,23,6,4,3.75,1,up,4,0
157,True,2.1018287999995664,800.0,50.0,33.0,0,False,2,down,0.25,8,0,0.17338480000034906,0.17338480000034906,0.8289236999989953,True,near-000,22,5,4,3.125,2,down,2,0
158,True,2.0765477000004466,800.0,50.0,33.0,15,False,2,down,0.25,24,0.25302799999917625,0.42926750000151515,0.6822955000006914,1.0775293000006059,True,near-240,23,3,2,1.875,2,down,2,0
159,True,3.67211209999914,800.0,50.0,33.0,10,False,2,down,0.25,16,0.16900060000079975,0.29821799999990617,0.4672186000007059,0.600056900000709,True,near-160,22,2,1,1.25,2,down,2,0
160,True,3.2073693000002095,800.0,800.0,50.0,0,False,0,down,0.25,32,0,0.5441491000001406,0.5441491000001406,0.8577141000005213,True,near-rndm,22,4,3,2.5,1,down,8,0
161,True,9.070810499999425,800.0,100.0,50.0,0,False,1,down,0.25,4,0,0.10998560000007274,0.10998560000007274,0.8378763000000617,False,near-rnd2,22,9,6,5.625,2,down,2,1
162,True,4.6499421000007715,800.0,33.0,50.0,0,False,3,up,0.25,16,0,0.27342920000046433,0.27342920000046433,1.0009219000003213,True,near-rnd3,23,2,2,1.25,1,up,4,0
163,True,4.350254199998744,800.0,50.0,33.0,0,False,2,down,0.25,8,0,0.16492939999989176,0.16492939999989176,1.1775502000000415,False,near-000,23,6,4,3.75,2,down,2,0
164,True,6.518112600000677,800.0,100.0,50.0,0,False,1,down,0.25,4,0,0.11327619999974559,0.11327619999974559,0.7340015999998286,True,near-rnd2,23,10,7,6.25,2,down,2,1
165,True,2.224055299999236,800.0,50.0,33.0,5,False,2,up,0.25,16,0.08685259999947448,0.2998725999987073,0.3867251999981818,0.6610476999994717,True,near-080,24,7,5,4.375,1,up,4,0
166,True,6.7044076999991375,800.0,50.0,33.0,10,False,2,down,0.25,16,0.17328809999889927,0.30470409999907133,0.4779921999979706,0.896912300000622,False,near-160,23,3,1,1.875,2,down,2,0
167,True,2.748168199999782,800.0,50.0,33.0,15,False,2,down,0.25,24,0.2507167000003392,0.4207046999999875,0.6714214000003267,0.2450962000002619,True,near-240,24,4,3,2.5,2,down,2,0
168,True,1.824215999999069,800.0,800.0,50.0,0,False,0,down,0.25,32,0,0.5357254000009561,0.5357254000009561,0.2068913999992219,True,near-rndm,23,5,4,3.125,1,down,8,0
169,True,1.8281654000002163,800.0,50.0,33.0,0,False,2,down,0.25,8,0,0.1708491999997932,0.1708491999997932,0.6825026000005892,True,near-000,24,7,5,4.375,2,down,2,0
170,True,1.6249314999986382,800.0,800.0,50.0,0,False,0,down,0.25,32,0,0.5432276999999885,0.5432276999999885,0.21123009999973874,True,near-rndm,24,6,5,3.75,1,down,8,0
171,True,2.3178276999988157,800.0,100.0,50.0,0,False,1,down,0.25,4,0,0.11220520000097167,0.11220520000097167,0.5596287000007578,True,near-rnd2,24,11,8,6.875,2,down,2,1
172,True,4.023469400000977,800.0,33.0,50.0,0,False,3,up,0.25,16,0,0.2761227000009967,0.2761227000009967,0.6133950000003097,True,near-rnd3,24,3,3,1.875,1,up,4,0
173,True,5.740066899999874,800.0,50.0,33.0,15,False,2,down,0.25,24,0.2517591999985598,0.4349540999992314,0.6867132999977912,0.12367379999886907,False,near-240,25,5,3,3.125,2,down,2,0
174,True,2.574577600000339,800.0,50.0,33.0,10,False,2,down,0.25,16,0.16854219999913767,0.2993019000005006,0.4678440999996383,1.1369926000006672,False,near-160,24,4,1,2.5,2,down,2,0
175,True,1.942703500000789,800.0,50.0,33.0,5,False,2,up,0.25,16,0.08763750000071013,0.2978067000003648,0.38544420000107493,0.5192944999998872,True,near-080,25,8,6,5.0,1,up,4,0
176,True,3.5326757000002544,800.0,50.0,33.0,10,False,2,down,0.25,16,0.16808360000140965,0.2989975999989838,0.46708120000039344,0.619587600000159,True,near-160,25,5,2,3.125,2,down,2,0
177,True,1.6620067000003473,800.0,50.0,33.0,5,False,2,up,0.25,16,0.08947599999919476,0.29789350000100967,0.3873695000002044,1.6298817999995663,True,near-080,26,9,7,5.625,1,up,4,1
178,True,2.567411699999866,800.0,100.0,50.0,0,False,1,down,0.25,4,0,0.1089802000005875,0.1089802000005875,2.2999775999996928,False,near-rnd2,25,12,8,7.5,2,down,2,1
179,True,2.318346500000189,800.0,33.0,50.0,0,False,3,down,0.25,12,0,0.2137193999988085,0.2137193999988085,4.388786499999696,False,near-rnd3,25,1,0,0.625,1,down,2,0
180,True,3.0670230999985506,800.0,50.0,33.0,15,False,2,down,0.25,24,0.2503335999990668,0.4263274000004458,0.6766609999995126,0.5063389999995707,True,near-240,26,6,4,3.75,2,down,2,0
181,True,2.190416000001278,800.0,50.0,33.0,0,False,2,down,0.25,8,0,0.1734254000002693,0.1734254000002693,0.8496241000011651,True,near-000,25,8,6,5.0,2,down,2,0
182,True,2.017960299999686,800.0,800.0,50.0,0,False,0,down,0.25,24,0,0.4114063000015449,0.4114063000015449,0.6424296999994112,True,near-rndm,25,1,1,0.625,1,down,8,0
183,True,3.0033034999996744,800.0,50.0,33.0,15,False,2,down,0.25,24,0.2551139000006515,0.4257134999988921,0.6808273999995436,0.6503360999995493,True,near-240,27,7,5,4.375,2,down,2,0
184,True,4.26381930000025,800.0,800.0,50.0,0,False,0,down,0.25,24,0,0.41680710000036925,0.41680710000036925,0.5150902999994287,True,near-rndm,26,2,2,1.25,1,down,8,0
185,True,7.816458999999668,800.0,50.0,33.0,10,False,2,down,0.25,16,0.17569659999935539,0.30132830000002286,0.47702489999937825,0.45226499999989755,True,near-160,26,6,3,3.75,2,down,2,0
186,True,6.773650700000871,800.0,50.0,33.0,0,False,2,down,0.25,8,0,0.16918640000039886,0.16918640000039886,0.577981099999306,True,near-000,26,9,7,5.625,2,down,2,1
187,True,2.765623900000719,800.0,100.0,50.0,0,False,1,down,0.25,4,0,0.11083249999865075,0.11083249999865075,0.6786726000009367,True,near-rnd2,26,13,9,8.125,2,down,2,1
188,True,1.9529416999994282,800.0,33.0,50.0,0,False,3,down,0.25,12,0,0.21814970000014,0.21814970000014,1.1061090000002878,False,near-rnd3,26,2,0,1.25,2,down,2,0
189,True,2.807552399999622,800.0,50.0,33.0,5,False,2,down,0.25,14,0.09254340000006778,0.2704431000001932,0.362986500000261,0.5130312999990565,True,near-080,27,1,1,0.625,1,down,1,0
190,True,4.165613400000439,800.0,50.0,33.0,5,False,2,down,0.25,14,0.09463460000006307,0.2705712000006315,0.3652058000006946,0.6811204999994516,False,near-080,28,2,1,1.25,2,down,1,0
191,True,2.6092093999995996,800.0,50.0,33.0,0,False,2,down,0.25,8,0,0.16867660000025353,0.16867660000025353,0.7053632999995898,False,near-000,27,10,7,6.25,2,down,2,1
192,True,2.0655084999998508,800.0,800.0,50.0,0,False,0,down,0.25,24,0,0.4155185999989044,0.4155185999989044,0.2863798999987921,True,near-rndm,27,3,3,1.875,1,down,8,0
193,True,1.2757879000000685,800.0,50.0,33.0,15,False,2,down,0.25,24,0.25359650000063994,0.4307623999993666,0.6843589000000065,0.52871149999919,True,near-240,28,8,6,5.0,2,down,2,0
194,True,2.8781908999990264,800.0,50.0,33.0,10,False,2,down,0.25,16,0.16785080000045127,0.29360889999952633,0.4614596999999776,0.4557062000003498,True,near-160,27,7,4,4.375,2,down,2,0
195,True,4.048696300000302,800.0,33.0,50.0,0,False,3,down,0.25,12,0,0.21132460000080755,0.21132460000080755,1.4420676000008825,False,near-rnd3,27,3,0,1.875,2,down,2,0
196,True,4.988515099999859,800.0,100.0,50.0,0,False,1,down,0.25,4,0,0.11103639999964798,0.11103639999964798,0.625191500001165,True,near-rnd2,27,14,10,8.75,2,down,2,1
197,True,3.072135399999752,800.0,33.0,50.0,0,False,3,down,0.25,12,0,0.2151331000004575,0.2151331000004575,1.3282978000006551,False,near-rnd3,28,4,0,2.5,2,down,2,0
198,True,4.502431200000501,800.0,50.0,33.0,0,False,2,down,0.25,8,0,0.17364219999944908,0.17364219999944908,0.7514807999996265,True,near-000,28,11,8,6.875,2,down,2,1
199,True,2.6545117999994545,800.0,50.0,33.0,15,False,2,down,0.25,24,0.25196499999947264,0.42190950000076555,0.6738745000002382,0.16835400000127265,True,near-240,29,9,7,5.625,2,down,2,1
200,True,1.5573613999986264,800.0,50.0,33.0,10,False,2,down,0.25,16,0.16835309999987658,0.3063079999992624,0.47466109999913897,0.46974629999931494,True,near-160,28,8,5,5.0,2,down,2,0
201,True,1.6894167000009475,800.0,800.0,50.0,0,False,0,down,0.25,16,0,0.288171300000613,0.288171300000613,0.7126942999984749,False,near-rndm,28,1,0,0.625,1,down,8,0
202,True,1.867890499999703,800.0,100.0,50.0,0,False,1,down,0.25,4,0,0.10093720000077155,0.10093720000077155,0.7189645999987988,True,near-rnd2,28,15,11,9.375,2,down,2,1
203,True,6.383501599999363,800.0,50.0,33.0,5,False,2,down,0.25,14,0.09325110000099812,0.26697579999927257,0.3602269000002707,0.5941462999999203,True,near-080,29,3,2,1.875,2,down,1,0
204,True,3.041992600001322,800.0,50.0,33.0,5,False,2,down,0.25,14,0.09285230000023148,0.2686940000003233,0.36154630000055477,0.5942766000007396,True,near-080,30,4,3,2.5,2,down,1,0
205,False,5.376700699998764,800.0,800.0,50.0,0,False,0,down,0.25,16,0,0.28355809999993653,0.28355809999993653,0.4871705999994447,True,near-rndm,29,2,1,1.25,1,down,8,0
206,True,7.079310899998745,800.0,50.0,33.0,10,False,2,down,0.25,16,0.16791270000067016,0.2940932999990764,0.46200599999974656,0.4347287000000506,True,near-160,29,9,6,5.625,2,down,2,1
207,True,2.635613700000249,800.0,100.0,50.0,0,False,1,down,0.25,4,0,0.10735790000035195,0.10735790000035195,0.6363350999999966,True,near-rnd2,29,16,12,10.0,2,down,2,1
208,True,2.3261265000001004,800.0,33.0,50.0,0,False,3,up,0.25,14,0,0.24914289999833272,0.24914289999833272,0.6979640000008658,False,near-rnd3,29,1,0,0.625,2,up,1,0
209,True,5.007050599999275,800.0,50.0,33.0,0,False,2,down,0.25,8,0,0.16335220000109985,0.16335220000109985,0.652487100000144,False,near-000,29,12,8,7.5,2,down,2,1
210,True,6.597990599999321,800.0,50.0,33.0,15,False,2,down,0.25,24,0.25383829999918817,0.4301140999996278,0.683952399998816,0.5391300999999658,True,near-240,30,10,8,6.25,2,down,2,1
211,True,2.3654953000004753,800.0,50.0,33.0,0,False,2,down,0.25,8,0,0.16809610000018438,0.16809610000018438,0.8106738999995287,False,near-000,30,13,8,8.125,2,down,2,1
212,True,1.180569000000105,800.0,50.0,33.0,15,False,2,down,0.25,24,0.24875059999976656,0.42559430000073917,0.6743449000005057,0.03839030000017374,True,near-240,31,11,9,6.875,2,down,2,1
213,True,1.7996585000000778,800.0,50.0,33.0,10,False,2,down,0.25,16,0.16734010000072885,0.30339029999959166,0.4707304000003205,0.40418229999886535,False,near-160,30,10,6,6.25,2,down,2,1
214,True,1.5744622999991407,800.0,50.0,33.0,5,False,2,down,0.25,14,0.08741720000034547,0.26970299999993586,0.35712020000028133,0.6846929000003001,True,near-080,31,5,4,3.125,2,down,1,0
215,True,1.7097610000000714,800.0,100.0,50.0,0,False,1,down,0.25,4,0,0.1110184000008303,0.1110184000008303,0.5726517000002787,True,near-rnd2,30,17,13,10.625,2,down,2,2
216,True,6.656781100000444,800.0,33.0,50.0,0,False,3,up,0.25,14,0,0.2438614000002417,0.2438614000002417,0.6967182999997021,False,near-rnd3,30,2,0,1.25,2,up,1,0
217,True,2.011771299999964,800.0,800.0,50.0,0,False,0,down,0.25,16,0,0.28822829999990063,0.28822829999990063,0.39487089999965974,True,near-rndm,29,2,1,1.25,1,down,8,0
218,True,1.7112058000002435,800.0,50.0,33.0,15,False,2,down,0.25,23,0.2508887000003597,0.41024859999924956,0.6611372999996092,0.4397183999990375,True,near-240,32,1,1,0.625,2,down,1,0
219,True,1.7174649000007776,800.0,100.0,50.0,0,False,1,down,0.25,3,0,0.0869803999994474,0.0869803999994474,0.9308244999992894,False,near-rnd2,31,1,0,0.625,2,down,1,0
220,True,3.2556937000008475,800.0,50.0,33.0,0,False,2,down,0.25,8,0,0.16929940000045463,0.16929940000045463,0.5230746999986877,True,near-000,31,14,9,8.75,2,down,2,1
221,True,2.7190032999988034,800.0,50.0,33.0,5,False,2,down,0.25,14,0.08939559999998892,0.2620734000010998,0.3514690000010887,0.4988846999985981,True,near-080,32,6,5,3.75,2,down,1,0
222,True,1.6279957999995531,800.0,800.0,50.0,0,False,0,down,0.25,16,0,0.283898899999258,0.283898899999258,0.6778143999999884,True,near-rndm,30,3,2,1.875,1,down,8,0
223,True,1.3861070000002655,800.0,33.0,50.0,0,False,3,up,0.25,14,0,0.24989069999901403,0.24989069999901403,0.7555850999997347,False,near-rnd3,31,3,0,1.875,2,up,1,0
224,True,1.7190095000005385,800.0,50.0,33.0,10,False,2,down,0.25,16,0.1731476000004477,0.3024318999996467,0.4755795000000944,0.5198017999991862,True,near-160,31,11,7,6.875,2,down,2,1
225,True,4.769007900000361,800.0,33.0,50.0,0,False,3,up,0.25,14,0,0.24451939999926253,0.24451939999926253,0.7201459000007162,True,near-rnd3,32,4,1,2.5,2,up,1,0
226,True,1.4308076999986952,800.0,50.0,33.0,15,False,2,down,0.25,23,0.25153449999925215,0.40866040000037174,0.6601948999996239,0.5951462000011816,True,near-240,33,2,2,1.25,2,down,1,0
227,True,1.7129268999997294,800.0,800.0,50.0,0,False,0,down,0.25,16,0,0.2837914000010642,0.2837914000010642,0.5116317000010895,True,near-rndm,31,4,3,2.5,1,down,8,0
228,True,2.373923499999364,800.0,50.0,33.0,5,False,2,down,0.25,14,0.09072500000002037,0.2684313999998267,0.35915639999984705,0.6179224999996222,True,near-080,33,7,6,4.375,2,down,1,0
229,True,1.736563300000853,800.0,100.0,50.0,0,False,1,down,0.25,3,0,0.09372789999906672,0.09372789999906672,0.6692865000004531,True,near-rnd2,32,2,1,1.25,3,down,1,0
230,False,2.8802075999992667,800.0,50.0,33.0,10,False,2,down,0.25,16,0.17312760000095295,0.3012488999993366,0.4743765000002895,0.6638980000006995,False,near-160,32,12,7,7.5,2,down,2,1
231,True,2.2925777999989805,800.0,50.0,33.0,0,False,2,down,0.25,8,0,0.1641698000003089,0.1641698000003089,0.7015117000009923,False,near-000,32,15,9,9.375,2,down,2,1
232,True,2.2695308000002115,800.0,50.0,33.0,15,False,2,down,0.25,23,0.2525273000010202,0.42168649999985064,0.6742138000008708,0.47050060000037774,True,near-240,34,3,3,1.875,2,down,1,0
233,True,1.4652397999998357,800.0,800.0,50.0,0,False,0,down,0.25,16,0,0.2835733000010805,0.2835733000010805,0.4745526000006066,True,near-rndm,32,5,4,3.125,1,down,8,0
234,True,1.458678200000577,800.0,50.0,33.0,0,False,2,down,0.25,8,0,0.16782489999968675,0.16782489999968675,0.8910866999995051,True,near-000,33,16,10,10.0,2,down,2,1
235,True,2.715785700000197,800.0,33.0,50.0,0,False,3,up,0.25,14,0,0.2452237999987119,0.2452237999987119,0.6730645999996341,True,near-rnd3,33,5,2,3.125,2,up,1,0
236,True,1.9541544999992766,800.0,50.0,33.0,5,False,2,down,0.25,14,0.09494510000149603,0.26467830000001413,0.35962340000151016,0.8814246000001731,False,near-080,34,8,6,5.0,2,down,1,0
237,True,2.8199203000003763,800.0,50.0,33.0,10,False,2,down,0.25,16,0.21875830000135466,0.298818700000993,0.5175770000023476,0.5906898000012006,False,near-160,32,12,7,7.5,2,down,2,1
238,True,8.717547599999307,800.0,100.0,50.0,0,False,1,down,0.25,3,0,0.09544269999969401,0.09544269999969401,0.815665899999658,True,near-rnd2,33,3,2,1.875,3,down,1,0
239,True,2.02604699999938,800.0,100.0,50.0,0,False,1,down,0.25,3,0,0.08812550000038755,0.08812550000038755,1.7286418000003323,True,near-rnd2,34,4,3,2.5,3,down,1,0
240,True,1.7976496999999654,800.0,50.0,33.0,0,False,2,down,0.25,8,0,0.16623540000000503,0.16623540000000503,0.961826700000529,False,near-000,34,17,10,10.625,2,down,2,2
241,True,1.930136200000561,800.0,33.0,50.0,0,False,3,up,0.25,14,0,0.24454710000100022,0.24454710000100022,0.7763628000011522,False,near-rnd3,34,6,2,3.75,2,up,1,0
242,True,2.7475766999996267,800.0,50.0,33.0,10,False,2,down,0.25,16,0.1689992000010534,0.29988070000035805,0.46887990000141144,0.5764955999984522,True,near-160,33,13,8,8.125,2,down,2,1
243,True,6.570493900000656,800.0,50.0,33.0,5,False,2,down,0.25,14,0.09068819999993138,0.25887739999961923,0.3495655999995506,0.6536893000011332,False,near-080,35,9,6,5.625,2,down,1,1
244,True,3.1877925000007963,800.0,800.0,50.0,0,False,0,down,0.25,16,0,0.2834891000002244,0.2834891000002244,0.9431782000010571,False,near-rndm,33,6,4,3.75,1,down,8,0
245,True,1.6117885000003298,800.0,50.0,33.0,15,False,2,down,0.25,23,0.25129779999952007,0.4096665999986726,0.6609643999981927,0.5761320000001433,True,near-240,35,4,4,2.5,2,down,1,0
246,True,8.550525800001196,800.0,33.0,50.0,0,False,3,up,0.25,14,0,0.24908499999946798,0.24908499999946798,0.6670945000005304,True,near-rnd3,35,7,3,4.375,2,up,1,0
247,True,1.9050291999992623,800.0,50.0,33.0,10,False,2,down,0.25,16,0.17154699999991863,0.3044719999998051,0.47601899999972375,0.5565306999997119,True,near-160,34,14,9,8.75,2,down,2,1
248,True,3.16343599999891,800.0,50.0,33.0,0,False,2,down,0.25,8,0,0.1651175000006333,0.1651175000006333,0.5356393000001844,True,near-000,35,18,11,11.25,2,down,2,2
249,True,3.1982369999986986,800.0,50.0,33.0,15,False,2,down,0.25,23,0.2502208999994764,0.4057073000003584,0.6559281999998348,0.5353482000009535,False,near-240,36,5,4,3.125,2,down,1,0
250,True,2.692497699999876,800.0,800.0,50.0,0,False,0,down,0.25,16,0,0.28316520000043965,0.28316520000043965,0.5413850000004459,True,near-rndm,34,7,5,4.375,1,down,8,0
251,True,1.9221279000012146,800.0,50.0,33.0,5,False,2,down,0.25,14,0.09038180000061402,0.2666398000001209,0.3570216000007349,2.3991695000004256,False,near-080,36,10,6,6.25,2,down,1,1
252,True,2.4691634999999224,800.0,100.0,50.0,0,False,1,down,0.25,3,0,0.08868950000032783,0.08868950000032783,0.5512891999987914,True,near-rnd2,35,5,4,3.125,3,down,1,0
253,True,1.9994241999993392,800.0,50.0,33.0,10,False,2,down,0.25,16,0.1704903000008926,0.30543910000051255,0.47592940000140516,0.415754100000413,True,near-160,35,15,10,9.375,2,down,2,1
254,False,1.8629934999989928,800.0,50.0,33.0,5,False,2,down,0.25,14,0.08942690000003495,0.26452770000105374,0.3539546000010887,1.510614099999657,True,near-080,37,11,7,6.875,2,down,1,1
255,True,1.8589093999999022,800.0,50.0,33.0,0,False,2,down,0.25,8,0,0.171651099999508,0.171651099999508,0.6569381000008434,True,near-000,36,19,12,11.875,2,down,2,2
256,True,1.3341910999988613,800.0,800.0,50.0,0,False,0,down,0.25,16,0,0.2849086999995052,0.2849086999995052,1.0591476000008697,False,near-rndm,35,8,5,5.0,1,down,8,0
257,True,6.434013100000811,800.0,33.0,50.0,0,False,3,up,0.25,14,0,0.24785069999961706,0.24785069999961706,0.5898178999996162,False,near-rnd3,36,8,3,5.0,2,up,1,0
258,True,3.9187982999992528,800.0,50.0,33.0,15,False,2,down,0.25,23,0.2537278999989212,0.4091872000008152,0.6629150999997364,0.22186750000037136,True,near-240,37,6,5,3.75,2,down,1,0
259,True,1.7432870000011462,800.0,100.0,50.0,0,False,1,down,0.25,3,0,0.08860760000061418,0.08860760000061418,0.522161299999425,True,near-rnd2,36,6,5,3.75,3,down,1,0
260,True,1.3215113000005658,800.0,50.0,33.0,0,False,2,down,0.25,8,0,0.16893139999956475,0.16893139999956475,0.7574585999991541,False,near-000,37,20,12,12.5,2,down,2,2
261,True,2.244263900000078,800.0,50.0,33.0,10,False,2,down,0.25,16,0.17312440000023344,0.30462339999940014,0.47774779999963357,0.5408150999992358,True,near-160,36,16,11,10.0,2,down,2,1
262,True,4.130284999999276,800.0,50.0,33.0,5,False,2,down,0.25,14,0.0880154999995284,0.27340560000084224,0.36142110000037064,0.49853600000096776,False,near-080,37,11,6,6.875,2,down,1,1
263,True,5.395204399999784,800.0,50.0,33.0,15,False,2,down,0.25,23,0.2491613000001962,0.41059539999878325,0.6597566999989795,0.27477379999982077,True,near-240,38,7,6,4.375,2,down,1,0
264,True,5.188544499998898,800.0,33.0,50.0,0,False,3,up,0.25,14,0,0.24723350000022037,0.24723350000022037,0.7118454999999813,False,near-rnd3,37,9,3,5.625,2,up,1,1
265,True,1.3468143999998574,800.0,800.0,50.0,0,False,0,down,0.25,16,0,0.28464290000010806,0.28464290000010806,0.765696400001616,False,near-rndm,36,9,5,5.625,1,down,8,1
266,True,1.4942713000000367,800.0,100.0,50.0,0,False,1,down,0.25,3,0,0.09522459999971034,0.09522459999971034,0.6940905999999814,False,near-rnd2,37,7,5,4.375,3,down,1,0
267,True,1.9212514000009833,800.0,50.0,33.0,10,False,2,down,0.25,16,0.17342390000158048,0.30293109999911394,0.4763550000006944,0.36994049999884737,False,near-160,37,17,11,10.625,2,down,2,2
268,True,3.917252600000211,800.0,33.0,50.0,0,False,3,up,0.25,15,0,0.2595571000001655,0.2595571000001655,0.6168669999988197,False,near-rnd3,38,1,0,0.625,2,up,1,0
269,True,3.2243062000015925,800.0,50.0,33.0,0,False,2,down,0.25,8,0,0.1630709000000934,0.1630709000000934,0.5563657000002422,False,near-000,38,21,12,13.125,2,down,2,2
270,True,4.96932519999973,800.0,800.0,50.0,0,False,0,down,0.25,16,0,0.28757930000028864,0.28757930000028864,0.4035167999991245,True,near-rndm,37,10,6,6.25,1,down,8,1
271,True,1.9662810000008903,800.0,50.0,33.0,5,False,2,down,0.25,14,0.08853970000018307,0.27137600000060047,0.35991570000078354,0.67350930000066,False,near-080,38,12,6,7.5,2,down,1,1
272,True,1.6516810999983136,800.0,100.0,50.0,0,False,1,down,0.25,3,0,0.08649510000032024,0.08649510000032024,0.6711522999994486,True,near-rnd2,38,8,6,5.0,3,down,1,0
273,True,4.082595300000321,800.0,50.0,33.0,15,False,2,down,0.25,23,0.24997500000063155,0.4097540000002482,0.6597290000008798,0.5048253999993904,True,near-240,39,8,7,5.0,2,down,1,0
274,True,2.0289738999999827,800.0,50.0,33.0,15,False,2,down,0.25,23,0.2519797999993898,0.4157058999990113,0.6676856999984011,0.1441647000010562,False,near-240,40,9,7,5.625,2,down,1,1
275,True,2.6379557000000204,800.0,800.0,50.0,0,False,0,down,0.25,16,0,0.3484291000004305,0.3484291000004305,0.815270099999907,True,near-rndm,38,11,7,6.875,1,down,8,1
276,True,4.334483399999954,800.0,50.0,33.0,5,False,2,down,0.25,14,0.08821110000098997,0.26703360000101384,0.3552447000020038,0.5872666999985086,True,near-080,39,13,7,8.125,2,down,1,1
277,True,1.8533618000001297,800.0,33.0,50.0,0,False,3,up,0.25,15,0,0.26086100000065926,0.26086100000065926,0.6916464999994787,False,near-rnd3,39,2,0,1.25,3,up,1,0
278,True,2.7637101000000257,800.0,50.0,33.0,0,False,2,down,0.25,8,0,0.1722615999988193,0.1722615999988193,0.7232007000002341,True,near-000,39,22,13,13.75,2,down,2,2
279,True,1.6010225000009086,800.0,50.0,33.0,10,False,2,down,0.25,16,0.1747825999991619,0.29785590000028606,0.47263849999944796,0.6506019999997079,False,near-160,38,18,11,11.25,2,down,2,2
280,True,6.476511899998513,800.0,800.0,50.0,0,False,0,down,0.25,16,0,0.28593679999903543,0.28593679999903543,0.6178708000006736,True,near-rndm,39,12,8,7.5,1,down,8,1
281,True,2.9479279999995924,800.0,50.0,33.0,0,False,2,down,0.25,8,0,0.1696312999993097,0.1696312999993097,1.2801037000008364,False,near-000,40,23,13,14.375,2,down,2,2
282,True,1.9053746999998111,800.0,50.0,33.0,10,False,2,down,0.25,16,0.1716679999990447,0.3109174000001076,0.4825853999991523,1.3658983999994234,False,near-160,39,19,11,11.875,2,down,2,2
283,True,5.81543050000073,800.0,50.0,33.0,15,False,2,down,0.25,23,0.2556646000011824,0.4146997999996529,0.6703644000008353,0.31756830000085756,True,near-240,41,10,8,6.25,2,down,1,1
284,True,2.018096300000252,800.0,50.0,33.0,5,False,2,down,0.25,14,0.08964019999984885,0.2718612000007852,0.361501400000634,0.9474542999996629,True,near-080,40,14,8,8.75,2,down,1,1
285,True,1.4153316000010818,800.0,33.0,50.0,0,False,3,up,0.25,15,0,0.2610344000004261,0.2610344000004261,1.943345199999385,False,near-rnd3,40,3,0,1.875,3,up,1,0
286,True,1.4793731999998272,800.0,50.0,33.0,0,False,2,down,0.25,8,0,0.1597185000009631,0.1597185000009631,1.14537780000137,True,near-000,41,24,14,15.0,2,down,2,2
287,True,2.184970500000418,800.0,33.0,50.0,0,False,3,up,0.25,15,0,0.2611845999999787,0.2611845999999787,2.4684228000005533,False,near-rnd3,41,4,0,2.5,3,up,1,0
288,True,2.8157183000002988,800.0,50.0,33.0,15,False,2,down,0.25,23,0.25238940000053844,0.4088188000005175,0.661208200001056,0.5825069000002259,True,near-240,42,11,9,6.875,2,down,1,1
289,True,2.6302507999989757,800.0,50.0,33.0,10,False,2,down,0.25,16,0.17244229999960226,0.353165500000614,0.5256078000002162,0.564387500000521,True,near-160,40,20,12,12.5,2,down,2,2
290,True,3.7041293000002042,800.0,50.0,33.0,5,False,2,down,0.25,14,0.08779259999937494,0.27132200000050943,0.3591145999998844,0.6295912000005046,False,near-080,41,15,8,9.375,2,down,1,1
291,True,3.061278900000616,800.0,800.0,50.0,0,False,0,down,0.25,16,0,0.27865229999952135,0.27865229999952135,0.6470914000001358,False,near-rndm,40,13,8,8.125,1,down,8,1
292,True,1.6110095999993064,800.0,50.0,33.0,5,False,2,down,0.25,14,0.08789670000078331,0.26767389999986335,0.35557060000064666,0.7359983999995166,True,near-080,42,16,9,10.0,2,down,1,1
293,True,1.6163011000007828,800.0,33.0,50.0,0,False,3,up,0.25,15,0,0.2599850000005972,0.2599850000005972,0.7493144000000029,False,near-rnd3,42,5,0,3.125,3,up,1,0
294,True,2.6783288000005996,800.0,50.0,33.0,15,False,2,down,0.25,22,0.25110550000135845,0.3941501999997854,0.6452557000011439,0.5854894000003696,True,near-240,43,1,1,0.625,2,down,1,0
295,True,2.7058004999998957,800.0,50.0,33.0,10,False,2,down,0.25,16,0.16742669999985083,0.30099269999846,0.46841939999831084,1.150562799999534,True,near-160,41,21,13,13.125,2,down,2,2
296,True,1.4696670999983326,800.0,800.0,50.0,0,False,0,down,0.25,16,0,0.4464696000013646,0.4464696000013646,0.45424479999928735,True,near-rndm,41,14,9,8.75,1,down,8,1
297,True,1.6466407000007166,800.0,50.0,33.0,15,False,2,down,0.25,22,0.253509899999699,0.391070600000603,0.644580500000302,0.44681969999874127,True,near-240,44,2,2,1.25,3,down,1,0
298,True,1.479866800000309,800.0,33.0,50.0,0,False,3,up,0.25,16,0,0.281446799999685,0.281446799999685,1.3863851000005525,False,near-rnd3,43,1,0,0.625,3,up,1,0
299,True,2.6320137000002433,800.0,50.0,33.0,10,False,2,down,0.25,16,0.1706727000000683,0.29248139999981504,0.46315409999988333,0.6776948000006087,False,near-160,42,22,13,13.75,2,down,2,2
300,True,1.5508426999986114,800.0,800.0,50.0,0,False,0,down,0.25,16,0,0.2855390999993688,0.2855390999993688,0.4334445999993477,True,near-rndm,42,15,10,9.375,1,down,8,1
301,True,3.2544846999990114,800.0,800.0,50.0,0,False,0,down,0.25,16,0,0.2821998999988864,0.2821998999988864,0.38002770000093733,True,near-rndm,43,16,11,10.0,1,down,8,1
302,True,4.356378200000108,800.0,33.0,50.0,0,False,3,up,0.25,16,0,0.27706880000005185,0.27706880000005185,0.5846609000000171,False,near-rnd3,44,2,0,1.25,3,up,1,0
303,True,2.3086958000003506,800.0,50.0,33.0,15,False,2,down,0.25,22,0.24665439999989758,0.395422999999937,0.6420773999998346,0.33321930000056454,True,near-240,45,3,3,1.875,3,down,1,0
304,True,2.840129199999865,800.0,50.0,33.0,10,False,2,down,0.25,16,0.16963200000100187,0.30210470000019995,0.4717367000012018,0.42426789999990433,False,near-160,43,23,13,14.375,2,down,2,2
305,True,2.116061200000331,800.0,50.0,33.0,10,False,2,down,0.25,16,0.16721370000050229,0.29749620000075083,0.4647099000012531,0.661476400000538,False,near-160,44,24,13,15.0,2,down,2,2
306,True,4.56622889999926,800.0,50.0,33.0,15,False,2,down,0.25,22,0.2532069999997475,0.39147609999963606,0.6446830999993836,1.3657503000013094,False,near-240,46,4,3,2.5,3,down,1,0
307,True,1.450273999998899,800.0,33.0,50.0,0,False,3,up,0.25,16,0,0.2800346999993053,0.2800346999993053,1.3315468000000692,False,near-rnd3,45,3,0,1.875,3,up,1,0
308,True,5.014054000001124,800.0,800.0,50.0,0,False,0,down,0.25,16,0,0.285448799999358,0.285448799999358,0.4717168000006495,True,near-rndm,44,17,12,10.625,1,down,8,2
309,True,2.427933099999791,800.0,33.0,50.0,0,False,3,up,0.25,16,0,0.2796412000006967,0.2796412000006967,0.6992374000001291,True,near-rnd3,46,4,1,2.5,3,up,1,0
310,True,1.9108244999988528,800.0,800.0,50.0,0,False,0,down,0.25,14,0,0.25156760000027134,0.25156760000027134,0.577437000001737,True,near-rndm,45,1,1,0.625,1,down,2,0
311,True,1.9061753999994835,800.0,50.0,33.0,15,False,2,down,0.25,22,0.24820270000054734,0.39653349999935017,0.6447361999998975,0.36993580000125803,False,near-240,47,5,3,3.125,3,down,1,0
312,True,3.5219971999995323,800.0,800.0,50.0,0,False,0,down,0.25,14,0,0.25058829999943555,0.25058829999943555,0.5755007000007026,True,near-rndm,46,2,2,1.25,2,down,2,0
313,True,1.094412000000375,800.0,50.0,33.0,15,False,2,down,0.25,22,0.2501508000004833,0.4017802999987907,0.651931099999274,0.6589065000007395,False,near-240,48,6,3,3.75,3,down,1,0
314,True,4.187320400000317,800.0,33.0,50.0,0,False,3,up,0.25,16,0,0.2720220999999583,0.2720220999999583,0.6955326999996032,False,near-rnd3,47,5,1,3.125,3,up,1,0
315,True,3.07010579999951,800.0,33.0,50.0,0,False,3,up,0.25,16,0,0.2817622000002302,0.2817622000002302,0.6476294999993115,False,near-rnd3,48,6,1,3.75,3,up,1,0
316,True,1.5276162000009208,800.0,800.0,50.0,0,False,0,down,0.25,14,0,0.25534650000008696,0.25534650000008696,0.7528621000001294,True,near-rndm,47,3,3,1.875,2,down,2,0
317,True,1.6858162999997148,800.0,50.0,33.0,15,False,2,down,0.25,22,0.24657309999929566,0.3954551000006177,0.6420281999999133,0.34321300000010524,True,near-240,49,7,4,4.375,3,down,1,0
318,True,1.436088700000255,800.0,800.0,50.0,0,False,0,down,0.25,14,0,0.25166230000104406,0.25166230000104406,0.5334808999996312,True,near-rndm,48,4,4,2.5,2,down,2,0
319,True,2.0754388000004838,800.0,33.0,50.0,0,False,3,up,0.25,16,0,0.2806444999987434,0.2806444999987434,0.7544052000012016,False,near-rnd3,49,7,1,4.375,3,up,1,0
320,True,1.6972194999998464,800.0,50.0,33.0,15,False,2,down,0.25,22,0.25472500000068976,0.3893788000004861,0.6441038000011758,0.248471700000664,False,near-240,50,8,4,5.0,3,down,1,0
