trial,primeCorrect,primeTime,primeDepth,stimDepth,diopters,nearToFar,orientation,contrast,frequency,intensity,requestedLatency,actualLatency,responseTime,correct,caseLabel,caseTrial,trialsAtStep,stepCorrect,expected,w,direction,stepsize,stepChange
1,True,5.598493200028315,33.0,100.0,800.0,0,0,True,2,90,1.0,[21. 21.],60,0.96,0.9658554000779986,0.2840448999777436,True,far-000,1,1,1,0.75,0.5,start,8,0
2,True,1.6195135000161827,33.0,100.0,800.0,10,0.16546899988316,True,2,90,1.0,[21. 21.],60,0.96,0.9661989999003708,0.018919500056654215,False,far-160,1,1,0,0.75,0.5,start,8,0
3,True,1.565081899985671,33.0,800.0,100.0,0,0.16546899988316,True,3,0,1.0,[21. 21.],60,0.96,0.9634982000570744,0.3874974998179823,True,far-rnd2,1,1,1,0.75,0.5,start,8,0
4,True,2.3645337000489235,33.0,100.0,800.0,5,0.08501450018957257,True,2,90,1.0,[21. 21.],60,0.96,0.96649120002985,0.12491860007867217,False,far-080,1,1,0,0.75,0.5,start,8,0
5,True,1.763002400053665,33.0,33.0,100.0,0,0.08501450018957257,False,0,0,1.0,[21. 21.],60,0.96,0.9631950000766665,1.9257950000464916,True,far-rndm,1,1,1,0.75,0.5,start,8,0
6,True,1.3262057998217642,33.0,100.0,800.0,0,0.08501450018957257,True,2,90,1.0,[21. 21.],52,0.8320000000000001,0.8386411000974476,0.37688979995436966,True,far-000,2,1,1,0.75,0.5,start,8,0
7,False,1.8153004997875541,33.0,100.0,800.0,5,0.08508320013061166,True,2,0,1.0,[21. 21.],68,1.088,1.0947534998413175,0.3391671997960657,True,far-080,2,1,1,0.75,0.5,up,4,0
8,True,1.6974100999068469,33.0,800.0,100.0,0,0.08508320013061166,True,3,0,1.0,[21. 21.],52,0.8320000000000001,0.8354481998831034,0.5708593998569995,True,far-rnd2,2,1,1,0.75,0.5,start,8,0
9,True,1.9771179999224842,33.0,100.0,800.0,10,0.1650302999187261,True,2,0,1.0,[21. 21.],68,1.088,1.0930109000764787,0.3122344999574125,True,far-160,2,1,1,0.75,0.5,up,4,0
10,True,1.4307929000351578,33.0,33.0,100.0,0,0.1650302999187261,False,0,90,1.0,[21. 21.],52,0.8320000000000001,0.8349267998710275,0.42994739999994636,True,far-rndm,2,1,1,0.75,0.5,start,8,0
11,True,1.5266651001293212,33.0,100.0,800.0,5,0.084551100153476,True,2,0,1.0,[21. 21.],68,1.088,1.0946076998952776,0.2605933998711407,True,far-080,2,1,1,0.75,0.5,up,4,0
12,True,3.505820699967444,33.0,100.0,800.0,10,0.16368309990502894,True,2,0,1.0,[21. 21.],68,1.088,1.0927748999092728,0.3518414997961372,True,far-160,3,2,2,1.5,1,up,4,0
13,True,1.6799971999134868,33.0,100.0,800.0,0,0.16368309990502894,True,2,0,1.0,[21. 21.],44,0.704,0.7087537001352757,0.4948770999908447,True,far-000,3,1,1,0.75,0.5,start,8,0
14,True,1.6140852000098675,33.0,800.0,100.0,0,0.16368309990502894,True,3,90,1.0,[21. 21.],44,0.704,0.7094008999411017,0.47963860002346337,True,far-rndm,3,1,1,0.75,0.5,start,8,0
15,True,2.06703729997389,33.0,800.0,100.0,0,0.16368309990502894,True,3,0,1.0,[21. 21.],44,0.704,0.7086923997849226,0.6722241998650134,True,far-rnd2,3,1,1,0.75,0.5,start,8,0
16,True,1.7069448998663574,33.0,100.0,800.0,5,0.08286670013330877,True,2,90,1.0,[21. 21.],68,1.088,1.0928816001396626,0.3754638999234885,True,far-080,3,2,2,1.5,1,up,4,0
17,True,1.9083216998260468,33.0,100.0,800.0,10,0.1634760000742972,True,2,90,1.0,[21. 21.],68,1.088,1.0932058000471443,0.37045200006105006,True,far-160,4,3,3,2.25,1,up,4,0
18,True,1.4870352998841554,33.0,33.0,100.0,0,0.1634760000742972,False,0,90,1.0,[21. 21.],36,0.5760000000000001,0.5785816998686641,0.3609784999862313,True,far-rnd2,4,1,1,0.75,0.5,start,8,0
19,True,1.4417920000851154,33.0,50.0,100.0,0,0.1634760000742972,True,1,0,1.0,[21. 21.],36,0.5760000000000001,0.5825911001302302,0.40171620016917586,True,far-rndm,4,1,1,0.75,0.5,start,8,0
20,True,2.6522468000184745,33.0,100.0,800.0,0,0.1634760000742972,True,2,90,1.0,[21. 21.],36,0.5760000000000001,0.5834985000547022,0.46687320014461875,True,far-000,4,1,1,0.75,0.5,start,8,0
21,True,1.8625123999081552,33.0,50.0,100.0,0,0.1634760000742972,True,1,0,1.0,[21. 21.],28,0.448,0.4524713000282645,0.45124150021001697,True,far-rnd2,5,1,1,0.75,0.5,start,8,0
22,True,1.6092691000085324,33.0,100.0,800.0,10,0.1645940998569131,True,2,90,1.0,[21. 21.],68,1.088,1.0962179000489414,0.25544869992882013,True,far-160,5,4,4,3.0,1,up,4,0
23,True,1.9188802998978645,33.0,50.0,100.0,0,0.1645940998569131,True,1,90,1.0,[21. 21.],28,0.448,0.4540722998790443,0.4083862002007663,True,far-rndm,5,1,1,0.75,0.5,start,8,0
24,True,1.4917949999216944,33.0,100.0,800.0,0,0.1645940998569131,True,2,90,1.0,[21. 21.],28,0.448,0.45285790017805994,0.4997046000789851,True,far-000,5,1,1,0.75,0.5,start,8,0
25,True,1.665149400010705,33.0,100.0,800.0,5,0.08335290011018515,True,2,0,1.0,[21. 21.],68,1.088,1.0945266999769956,0.32823480013757944,True,far-080,4,3,3,2.25,1,up,4,0
26,True,2.552149600116536,33.0,100.0,800.0,5,0.0845786000136286,True,2,0,1.0,[21. 21.],68,1.088,1.0954392000567168,0.3614028999581933,True,far-080,5,4,4,3.0,1,up,4,0
27,True,1.603787099942565,33.0,100.0,800.0,0,0.0845786000136286,True,2,0,1.0,[21. 21.],20,0.32,0.3263294000644237,0.5926481999922544,True,far-000,6,1,1,0.75,0.5,start,8,0
28,True,1.363972800085321,33.0,33.0,100.0,0,0.0845786000136286,False,0,90,1.0,[21. 21.],20,0.32,0.3224029999691993,0.4261404999997467,True,far-rndm,6,1,1,0.75,0.5,start,8,0
29,False,1.154823899967596,33.0,100.0,800.0,10,0.16370059992186725,True,2,0,1.0,[21. 21.],68,1.088,1.0929133999161422,0.07508450001478195,False,far-160,6,5,4,3.75,1,up,4,0
30,True,1.657522999914363,33.0,50.0,100.0,0,0.16370059992186725,True,1,90,1.0,[21. 21.],20,0.32,0.3248397000133991,0.4407192999497056,True,far-rnd2,6,1,1,0.75,0.5,start,8,0
31,True,1.7519016000442207,33.0,100.0,800.0,5,0.08531290013343096,True,2,90,1.0,[21. 21.],68,1.088,1.0951588999014348,0.20455550006590784,True,far-080,6,5,5,3.75,1,up,4,0
32,True,1.67859059991315,33.0,100.0,800.0,0,0.08531290013343096,True,2,0,1.0,[21. 21.],12,0.192,0.19708640011958778,0.6945107001811266,True,far-000,7,1,1,0.75,0.5,start,8,0
33,True,1.4821211998350918,33.0,33.0,100.0,0,0.08531290013343096,False,0,0,1.0,[21. 21.],12,0.192,0.19519750005565584,0.4902530999388546,True,far-rnd2,7,1,1,0.75,0.5,start,8,0
34,True,1.5029981001280248,33.0,100.0,800.0,10,0.16437090002000332,True,2,90,1.0,[21. 21.],68,1.088,1.0936501999385655,1.0475492000114173,True,far-160,6,5,5,3.75,1,up,4,0
35,True,2.484144499991089,33.0,33.0,100.0,0,0.16437090002000332,False,0,0,1.0,[21. 21.],12,0.192,0.1953470001462847,0.6332789999432862,True,far-rndm,7,1,1,0.75,0.5,start,8,0
36,True,1.128048300044611,33.0,100.0,800.0,5,0.0846875999122858,True,2,0,1.0,[21. 21.],64,1.024,1.031547199934721,0.38053559977561235,True,far-080,7,1,1,0.75,1,down,2,0
37,True,1.5082715000025928,33.0,100.0,800.0,10,0.16326129995286465,True,2,90,1.0,[21. 21.],64,1.024,1.0315743000246584,0.009364199824631214,True,far-160,7,1,1,0.75,1,down,2,0
38,True,2.82583409990184,33.0,800.0,100.0,0,0.16326129995286465,True,3,90,1.0,[21. 21.],4,0.064,0.06750080012716353,1.302709200186655,True,far-rndm,8,1,1,0.75,0.5,start,8,0
39,True,1.656974600162357,33.0,100.0,800.0,0,0.16326129995286465,True,2,90,1.0,[21. 21.],4,0.064,0.07394949998706579,1.0521241000387818,False,far-000,8,1,0,0.75,0.5,start,8,0
40,True,3.8795203999616206,33.0,800.0,100.0,0,0.16326129995286465,True,3,90,1.0,[21. 21.],4,0.064,0.06941520003601909,1.3537006000988185,False,far-rnd2,8,1,0,0.75,0.5,start,8,0
41,True,2.414206000044942,33.0,100.0,800.0,5,0.0847509999293834,True,2,90,1.0,[21. 21.],64,1.024,1.0304039001930505,0.08183640008792281,False,far-080,8,2,1,1.5,1,down,2,0
42,True,1.3523494000546634,33.0,100.0,800.0,10,0.16385919996537268,True,2,0,1.0,[21. 21.],64,1.024,1.0338231001514941,0.3126833001151681,True,far-160,8,2,2,1.5,1,down,2,0
43,True,1.3315866000484675,33.0,100.0,800.0,0,0.16385919996537268,True,2,0,1.0,[21. 21.],8,0.128,0.13667449983768165,0.8766435000579804,True,far-000,9,1,1,0.75,0.5,up,2,0
44,False,2.268793100025505,33.0,800.0,100.0,0,0.16385919996537268,True,3,90,1.0,[21. 21.],0,0.0,0.0043651999440044165,1.2879701000638306,True,far-rndm,9,1,1,0.75,0.5,start,8,1
45,True,1.588054500054568,33.0,800.0,100.0,0,0.16385919996537268,True,3,90,1.0,[21. 21.],8,0.128,0.13319580000825226,1.0505949000362307,False,far-rnd2,9,1,0,0.75,0.5,up,2,0
46,True,1.5623115000780672,33.0,50.0,100.0,0,0.16385919996537268,True,1,0,1.0,[21. 21.],0,0.0,0.005579800112172961,0.8242863998748362,True,far-rndm,9,1,1,0.75,0.5,start,8,1
47,True,1.8079769001342356,33.0,100.0,800.0,5,0.08371520019136369,True,2,0,1.0,[21. 21.],64,1.024,1.032680399948731,0.4255955000407994,True,far-080,9,3,2,2.25,1,down,2,0
48,True,3.002289299853146,33.0,100.0,800.0,0,0.08371520019136369,True,2,0,1.0,[21. 21.],8,0.128,0.1358022999484092,0.7033496000804007,True,far-000,10,2,2,1.5,1,up,2,0
49,True,1.4036067998968065,33.0,100.0,800.0,10,0.16368160001002252,True,2,0,1.0,[21. 21.],64,1.024,1.0304088999982923,0.3721096001099795,True,far-160,9,3,3,2.25,1,down,2,0
50,True,2.0415186998434365,33.0,50.0,100.0,0,0.16368160001002252,True,1,90,1.0,[21. 21.],8,0.128,0.13257060013711452,0.640160100068897,True,far-rnd2,10,2,1,1.5,1,up,2,0
51,True,1.7038323001470417,33.0,100.0,800.0,0,0.16368160001002252,True,2,90,1.0,[21. 21.],8,0.128,0.13319209986366332,1.0318971001543105,True,far-000,11,3,3,2.25,1,up,2,0
52,True,2.0481042999308556,33.0,800.0,100.0,0,0.16368160001002252,True,3,0,1.0,[21. 21.],8,0.128,0.1313395998440683,0.9399807001464069,False,far-rnd2,11,3,1,2.25,1,up,2,0
53,True,1.77507199998945,33.0,100.0,800.0,10,0.16296699992381036,True,2,0,1.0,[21. 21.],64,1.024,1.0290363000240177,0.3960321000777185,True,far-160,10,4,4,3.0,1,down,2,0
54,True,1.919301199959591,33.0,100.0,800.0,5,0.08435510005801916,True,2,90,1.0,[21. 21.],64,1.024,1.0313927000388503,0.3156999000348151,True,far-080,10,4,3,3.0,1,down,2,0
55,False,1.9847798000555485,33.0,33.0,100.0,0,0.08435510005801916,False,0,0,1.0,[21. 21.],0,0.0,0.0021808999590575695,1.130184100009501,False,far-rndm,10,1,0,0.75,0.5,start,8,1
56,True,1.642029299866408,33.0,100.0,800.0,0,0.08435510005801916,True,2,0,1.0,[21. 21.],8,0.128,0.13351650000549853,0.7586044000927359,True,far-000,12,4,4,3.0,1,up,2,0
57,True,1.8376899000722915,33.0,100.0,800.0,5,0.08395979995839298,True,2,90,1.0,[21. 21.],64,1.024,1.0317810999695212,0.368262599920854,True,far-080,11,5,4,3.75,1,down,2,0
58,True,1.6072490999940783,33.0,100.0,800.0,10,0.16499010007828474,True,2,90,1.0,[21. 21.],64,1.024,1.0298448000103235,0.3210718999616802,True,far-160,11,5,5,3.75,1,down,2,0
59,True,2.237645599991083,33.0,800.0,100.0,0,0.16499010007828474,True,3,0,1.0,[21. 21.],10,0.16,0.1641275999136269,0.9675827000755817,True,far-rnd2,12,1,1,0.75,1,up,2,0
60,True,1.4225266000721604,33.0,50.0,100.0,0,0.16499010007828474,True,1,0,1.0,[21. 21.],0,0.0,0.005484999855980277,1.108104000100866,False,far-rndm,10,1,0,0.75,0.5,start,8,1
61,True,3.4502940999809653,33.0,100.0,800.0,5,0.08422099985182285,True,2,0,1.0,[21. 21.],64,1.024,1.0301319998688996,0.3457476000767201,True,far-080,12,6,5,4.5,1,down,2,0
62,True,1.6595909998286515,33.0,100.0,800.0,0,0.08422099985182285,True,2,90,1.0,[21. 21.],8,0.128,0.13854080019518733,0.8282527001574636,False,far-000,13,5,4,3.75,1,up,2,0
63,True,2.128048899816349,33.0,33.0,100.0,0,0.08422099985182285,False,0,90,1.0,[21. 21.],10,0.16,0.16327559994533658,0.6847401999402791,True,far-rnd2,13,2,2,1.5,1,up,2,0
64,True,1.4439902000594884,33.0,100.0,800.0,10,0.16401589987799525,True,2,90,1.0,[21. 21.],62,0.992,0.9988345000892878,0.4021232998929918,True,far-160,12,1,1,0.75,1,down,2,0
65,True,1.9698739000596106,33.0,800.0,100.0,0,0.16401589987799525,True,3,90,1.0,[21. 21.],4,0.064,0.06815639999695122,1.4283880000002682,True,far-rndm,11,1,1,0.75,0.5,up,2,0
66,True,2.964002399938181,33.0,100.0,800.0,5,0.08393640001304448,True,2,0,1.0,[21. 21.],64,1.024,1.0290604000911117,0.4548065001145005,True,far-080,13,7,6,5.25,1,down,2,0
67,True,1.8985915000084788,33.0,100.0,800.0,0,0.08393640001304448,True,2,90,1.0,[21. 21.],8,0.128,0.133291200036183,0.7995227000210434,True,far-000,14,6,5,4.5,1,up,2,0
68,True,1.8573465999215841,33.0,50.0,100.0,0,0.08393640001304448,True,1,0,1.0,[21. 21.],10,0.16,0.16397930006496608,0.596388999838382,True,far-rnd2,14,3,3,2.25,1,up,2,0
69,True,1.7549687998834997,33.0,800.0,100.0,0,0.08393640001304448,True,3,90,1.0,[21. 21.],4,0.064,0.06929360004141927,1.02100700000301,False,far-rndm,12,2,1,1.5,1,up,2,0
70,True,3.386160100111738,33.0,100.0,800.0,10,0.16292260005138814,True,2,0,1.0,[21. 21.],62,0.992,0.9999230999965221,0.5435800000559539,True,far-160,13,2,2,1.5,1,down,2,0
71,True,1.8778731999918818,33.0,100.0,800.0,5,0.08338849991559982,True,2,0,1.0,[21. 21.],64,1.024,1.02978720003739,0.4278899999335408,True,far-080,14,8,7,6.0,1,down,2,0
72,True,1.7293159000109881,33.0,800.0,100.0,0,0.08338849991559982,True,3,0,1.0,[21. 21.],10,0.16,0.1645084999036044,0.9860811999533325,True,far-rnd2,15,4,4,3.0,1,up,2,0
73,True,1.7533385001588613,33.0,100.0,800.0,10,0.16540850000455976,True,2,0,1.0,[21. 21.],62,0.992,1.032506400020793,0.18108960008248687,True,far-160,14,3,3,2.25,1,down,2,0
74,True,1.7247317999135703,33.0,33.0,100.0,0,0.16540850000455976,False,0,90,1.0,[21. 21.],4,0.064,0.06598079996183515,0.628769300179556,True,far-rndm,13,3,2,2.25,1,up,2,0
75,True,1.0672654998488724,33.0,100.0,800.0,0,0.16540850000455976,True,2,90,1.0,[21. 21.],8,0.128,0.1351194002199918,1.2244503998663276,True,far-000,15,7,6,5.25,1,up,2,0
76,True,1.3740195001009852,33.0,50.0,100.0,0,0.16540850000455976,True,1,0,1.0,[21. 21.],4,0.064,0.06800540001131594,0.652575199957937,True,far-rndm,14,4,3,3.0,1,up,2,0
77,True,1.3866654001176357,33.0,100.0,800.0,5,0.08400800009258091,True,2,0,1.0,[21. 21.],64,1.024,1.0326827000826597,0.37177519989199936,True,far-080,15,9,8,6.75,1,down,2,1
78,True,1.5273937000893056,33.0,33.0,100.0,0,0.08400800009258091,False,0,0,1.0,[21. 21.],10,0.16,0.1632062999997288,0.5418761998880655,True,far-rnd2,16,5,5,3.75,1,up,2,0
79,True,1.163147399900481,33.0,100.0,800.0,0,0.08400800009258091,True,2,90,1.0,[21. 21.],8,0.128,0.13307660003192723,0.7065550999250263,False,far-000,16,8,6,6.0,1,up,2,0
80,True,1.665179300121963,33.0,100.0,800.0,10,0.16395279997959733,True,2,90,1.0,[21. 21.],62,0.992,0.9977597000543028,0.4748660000041127,True,far-160,15,4,4,3.0,1,down,2,0
81,True,1.2775210998952389,33.0,50.0,100.0,0,0.16395279997959733,True,1,90,1.0,[21. 21.],8,0.128,0.13328489987179637,0.6000356001313776,True,far-rnd2,17,1,1,0.75,1,down,1,0
82,True,1.5946837000083178,33.0,100.0,800.0,5,0.08378489990718663,True,2,0,1.0,[21. 21.],63,1.008,1.0157013998832554,0.3711262000724673,True,far-080,16,1,1,0.75,1,down,1,0
83,True,1.4356927999760956,33.0,100.0,800.0,0,0.08378489990718663,True,2,90,1.0,[21. 21.],8,0.128,0.13563200016506016,0.7525628998409957,False,far-000,17,9,6,6.75,1,up,2,1
84,True,1.7164054999593645,33.0,100.0,800.0,10,0.16341639985330403,True,2,0,1.0,[21. 21.],62,0.992,0.9988591000437737,0.3621056000702083,True,far-160,16,5,5,3.75,1,down,2,0
85,True,1.4889217000454664,33.0,800.0,100.0,0,0.16341639985330403,True,3,0,1.0,[21. 21.],4,0.064,0.06798180006444454,0.8295781000051647,True,far-rndm,15,5,4,3.75,1,up,2,0
86,True,1.445546899922192,33.0,100.0,800.0,10,0.16464639990590513,True,2,90,1.0,[21. 21.],60,0.96,0.9680939000099897,0.41058559995144606,True,far-160,17,1,1,0.75,1,down,2,0
87,True,2.182958000106737,33.0,100.0,800.0,0,0.16464639990590513,True,2,0,1.0,[21. 21.],8,0.128,0.1359850000590086,0.7965128999203444,False,far-000,18,10,6,7.5,1,up,2,1
88,True,1.5833000000566244,33.0,33.0,100.0,0,0.16464639990590513,False,0,90,1.0,[21. 21.],4,0.064,0.06720109982416034,0.5716458999086171,True,far-rndm,16,6,5,4.5,1,up,2,0
89,True,1.4797557001002133,33.0,100.0,800.0,5,0.08406699984334409,True,2,0,1.0,[21. 21.],63,1.008,1.0160984999965876,0.420228699920699,True,far-080,17,2,2,1.5,2,down,1,0
90,True,1.5876444999594241,33.0,800.0,100.0,0,0.08406699984334409,True,3,0,1.0,[21. 21.],8,0.128,0.1317487999331206,1.1674093001056463,True,far-rnd2,18,2,2,1.5,2,down,1,0
91,True,2.028446399839595,33.0,100.0,800.0,10,0.16417720005847514,True,2,90,1.0,[21. 21.],60,0.96,0.9648239999078214,0.34528620005585253,True,far-160,18,2,2,1.5,1,down,2,0
92,True,1.6748011000454426,33.0,100.0,800.0,0,0.16417720005847514,True,2,90,1.0,[21. 21.],9,0.14400000000000002,0.15143959992565215,0.8452647000085562,True,far-000,19,1,1,0.75,1,up,1,0
93,True,1.6560167002025992,33.0,50.0,100.0,0,0.16417720005847514,True,1,90,1.0,[21. 21.],8,0.128,0.13188020000234246,0.596723600057885,True,far-rnd2,19,3,3,2.25,2,down,1,0
94,True,1.5065414998680353,33.0,100.0,800.0,5,0.08396929991431534,True,2,90,1.0,[21. 21.],63,1.008,1.0167668000794947,0.3114769000094384,True,far-080,18,3,3,2.25,2,down,1,0
95,True,2.383424599887803,33.0,800.0,100.0,0,0.08396929991431534,True,3,0,1.0,[21. 21.],4,0.064,0.06751179997809231,1.0523529001511633,False,far-rndm,17,7,5,5.25,1,up,2,0
96,True,1.5072965999133885,33.0,50.0,100.0,0,0.08396929991431534,True,1,0,1.0,[21. 21.],4,0.064,0.06929829996079206,0.6089057999197394,True,far-rndm,18,8,6,6.0,1,up,2,0
97,True,1.620832100044936,33.0,800.0,100.0,0,0.08396929991431534,True,3,0,1.0,[21. 21.],8,0.128,0.13198420009575784,0.78830899996683,True,far-rnd2,20,4,4,3.0,2,down,1,0
98,True,1.552885500015691,33.0,100.0,800.0,5,0.0850668998900801,True,2,0,1.0,[21. 21.],63,1.008,1.016178400022909,0.3074235001113266,True,far-080,19,4,4,3.0,2,down,1,0
99,True,1.6184956999495625,33.0,100.0,800.0,10,0.1646186001598835,True,2,90,1.0,[21. 21.],60,0.96,0.9665077000390738,0.36117460019886494,True,far-160,19,3,3,2.25,1,down,2,0
100,True,1.7804930999409407,33.0,100.0,800.0,0,0.1646186001598835,True,2,0,1.0,[21. 21.],9,0.14400000000000002,0.14856299990788102,0.7913545998744667,False,far-000,20,2,1,1.5,2,up,1,0
101,True,1.6414705000352114,33.0,50.0,100.0,0,0.1646186001598835,True,1,90,1.0,[21. 21.],8,0.128,0.13512790016829967,0.533048199955374,True,far-rnd2,21,5,5,3.75,2,down,1,0
102,True,2.0591074000112712,33.0,100.0,800.0,5,0.08431120007298887,True,2,0,1.0,[21. 21.],63,1.008,1.0182896999176592,0.35689799999818206,True,far-080,20,5,5,3.75,2,down,1,0
103,True,1.5490625000093132,33.0,100.0,800.0,10,0.16528979991562665,True,2,90,1.0,[21. 21.],60,0.96,0.9673055000603199,0.3094969999510795,True,far-160,20,4,4,3.0,1,down,2,0
104,True,1.5337894998956472,33.0,100.0,800.0,0,0.16528979991562665,True,2,90,1.0,[21. 21.],9,0.14400000000000002,0.15087990020401776,0.6252835998311639,True,far-000,21,3,2,2.25,2,up,1,0
105,True,2.005200899904594,33.0,800.0,100.0,0,0.16528979991562665,True,3,90,1.0,[21. 21.],4,0.064,0.06697110016830266,1.0051994998939335,False,far-rndm,19,9,6,6.75,1,up,2,1
106,True,4.398237599991262,33.0,100.0,800.0,5,0.08454279997386038,True,2,90,1.0,[21. 21.],63,1.008,1.0157360001467168,0.37780340015888214,True,far-080,21,6,6,4.5,2,down,1,0
107,True,1.540175599977374,33.0,800.0,100.0,0,0.08454279997386038,True,3,90,1.0,[21. 21.],4,0.064,0.0675806999206543,0.9146561999805272,True,far-rndm,20,10,7,7.5,1,up,2,1
108,True,1.4089495001826435,33.0,50.0,100.0,0,0.08454279997386038,True,1,90,1.0,[21. 21.],8,0.128,0.13271709997206926,0.626668700017035,True,far-rnd2,22,6,6,4.5,2,down,1,0
109,True,1.3848612001165748,33.0,100.0,800.0,10,0.16316149989143014,True,2,90,1.0,[21. 21.],60,0.96,0.9675074000842869,0.4759782000910491,True,far-160,21,5,5,3.75,1,down,2,0
110,True,1.7793955001980066,33.0,100.0,800.0,0,0.16316149989143014,True,2,0,1.0,[21. 21.],9,0.14400000000000002,0.1506340999621898,0.6328148001339287,True,far-000,22,4,3,3.0,2,up,1,0
111,True,1.5691511000040919,33.0,100.0,800.0,0,0.16316149989143014,True,2,0,1.0,[21. 21.],9,0.14400000000000002,0.15189470001496375,0.6383150001056492,True,far-000,23,5,4,3.75,2,up,1,0
112,True,1.7255541000049561,33.0,33.0,100.0,0,0.16316149989143014,False,0,90,1.0,[21. 21.],4,0.064,0.06677679996937513,0.6810903998557478,False,far-rndm,21,11,7,8.25,1,up,2,1
113,True,1.0762676999438554,33.0,100.0,800.0,5,0.08434169995598495,True,2,0,1.0,[21. 21.],63,1.008,1.0151009000837803,0.11003559990786016,True,far-080,22,7,7,5.25,2,down,1,0
114,True,1.4308185998816043,33.0,50.0,100.0,0,0.08434169995598495,True,1,90,1.0,[21. 21.],8,0.128,0.13622220000252128,0.6548834000714123,True,far-rnd2,23,7,7,5.25,2,down,1,0
115,True,1.8448669000063092,33.0,100.0,800.0,10,0.1626820000819862,True,2,90,1.0,[21. 21.],58,0.928,0.9352815998718143,0.35063469992019236,True,far-160,22,1,1,0.75,1,down,4,0
116,True,1.8310513000469655,33.0,33.0,100.0,0,0.1626820000819862,False,0,0,1.0,[21. 21.],5,0.08,0.0833825001027435,0.6958678001537919,True,far-rndm,22,1,1,0.75,1,up,1,0
117,True,0.9057118999771774,33.0,100.0,800.0,5,0.0831117001362145,True,2,0,1.0,[21. 21.],63,1.008,1.0145288000348955,0.297622499987483,True,far-080,23,8,8,6.0,2,down,1,0
118,True,1.7636408999096602,33.0,100.0,800.0,0,0.0831117001362145,True,2,0,1.0,[21. 21.],9,0.14400000000000002,0.15163329988718033,0.9268128999974579,True,far-000,24,6,5,4.5,2,up,1,0
119,True,1.9190221999306232,33.0,100.0,800.0,10,0.1652337999548763,True,2,90,1.0,[21. 21.],58,0.928,0.9347023000009358,0.33178530004806817,True,far-160,23,2,2,1.5,1,down,4,0
120,True,1.9431499000638723,33.0,50.0,100.0,0,0.1652337999548763,True,1,90,1.0,[21. 21.],8,0.128,0.13398119993507862,0.6132873001042753,True,far-rnd2,24,8,8,6.0,2,down,1,0
121,True,1.6647407000418752,33.0,800.0,100.0,0,0.1652337999548763,True,3,90,1.0,[21. 21.],8,0.128,0.13369259983301163,0.9006971002090722,False,far-rnd2,25,9,8,6.75,2,down,1,1
122,True,1.3251366999465972,33.0,100.0,800.0,5,0.11039200006052852,True,2,90,1.0,[21. 21.],63,1.008,1.0134622999466956,0.4349449002183974,True,far-080,24,9,9,6.75,2,down,1,1
123,True,3.0772872001398355,33.0,100.0,800.0,10,0.16470089997164905,True,2,90,1.0,[21. 21.],58,0.928,0.9359373000916094,0.38388730003498495,True,far-160,24,3,3,2.25,1,down,4,0
124,True,1.481252099853009,33.0,100.0,800.0,0,0.16470089997164905,True,2,90,1.0,[21. 21.],9,0.14400000000000002,0.1519631000701338,0.6804159001912922,True,far-000,25,7,6,5.25,2,up,1,0
125,True,1.3494212999939919,33.0,50.0,100.0,0,0.16470089997164905,True,1,90,1.0,[21. 21.],5,0.08,0.08728810003958642,0.6467516999691725,True,far-rndm,23,2,2,1.5,2,up,1,0
126,True,1.4279488001484424,33.0,50.0,100.0,0,0.16470089997164905,True,1,0,1.0,[21. 21.],8,0.128,0.1323514999821782,0.5796888000331819,True,far-rnd2,26,10,9,7.5,2,down,1,1
127,True,2.0391719001345336,33.0,50.0,100.0,0,0.16470089997164905,True,1,0,1.0,[21. 21.],5,0.08,0.08700649999082088,0.625260700006038,True,far-rndm,24,3,3,2.25,2,up,1,0
128,False,1.5251669997815043,33.0,100.0,800.0,10,0.1640421999618411,True,2,0,1.0,[21. 21.],58,0.928,0.9344341000542045,0.3547205999493599,True,far-160,25,4,4,3.0,1,down,4,0
129,True,1.5338415000587702,33.0,100.0,800.0,0,0.1640421999618411,True,2,0,1.0,[21. 21.],9,0.14400000000000002,0.15394819993525743,0.885645599802956,False,far-000,26,8,6,6.0,2,up,1,0
130,True,1.304671399993822,33.0,100.0,800.0,5,0.08488659979775548,True,2,0,1.0,[21. 21.],62,0.992,0.99711860017851,0.45555590000003576,True,far-080,25,1,1,0.75,2,down,1,0
131,True,1.461725499946624,33.0,100.0,800.0,5,0.08482980006374419,True,2,90,1.0,[21. 21.],62,0.992,0.9974138999823481,0.1553505000192672,True,far-080,26,2,2,1.5,2,down,1,0
132,True,1.750879199942574,33.0,100.0,800.0,10,0.16335049993358552,True,2,0,1.0,[21. 21.],58,0.928,0.9364286998752505,0.3744173999875784,True,far-160,25,4,4,3.0,1,down,4,0
133,True,1.8115170998498797,33.0,100.0,800.0,0,0.16335049993358552,True,2,90,1.0,[21. 21.],9,0.14400000000000002,0.1506139999255538,0.7377061999868602,True,far-000,27,9,7,6.75,2,up,1,1
134,True,1.492646599886939,33.0,33.0,100.0,0,0.16335049993358552,False,0,0,1.0,[21. 21.],8,0.128,0.12889150017872453,0.6439651001710445,True,far-rnd2,27,11,10,8.25,2,down,1,1
135,True,0.7916143001057208,33.0,50.0,100.0,0,0.16335049993358552,True,1,90,1.0,[21. 21.],5,0.08,0.08637190004810691,0.6661960000637919,True,far-rndm,25,4,4,3.0,2,up,1,0
136,True,1.3341000999789685,33.0,33.0,100.0,0,0.16335049993358552,False,0,0,1.0,[21. 21.],5,0.08,0.08198329992592335,0.5686608001124114,True,far-rndm,26,5,5,3.75,2,up,1,0
137,True,1.5076659000478685,33.0,50.0,100.0,0,0.16335049993358552,True,1,0,1.0,[21. 21.],8,0.128,0.17240729997865856,0.6301337000913918,True,far-rnd2,28,12,11,9.0,2,down,1,1
138,True,1.7902506000827998,33.0,100.0,800.0,10,0.16506760008633137,True,2,0,1.0,[21. 21.],58,0.928,0.9332721999380738,0.3969787999521941,True,far-160,26,5,5,3.75,1,down,4,0
139,True,1.6638011001050472,33.0,100.0,800.0,5,0.08380319993011653,True,2,90,1.0,[21. 21.],62,0.992,0.9980333000421524,0.3250965001061559,True,far-080,27,3,3,2.25,2,down,1,0
140,True,1.6831274998839945,33.0,100.0,800.0,0,0.08380319993011653,True,2,90,1.0,[21. 21.],9,0.14400000000000002,0.15086930012330413,1.1350047001615167,True,far-000,28,10,8,7.5,2,up,1,1
141,True,1.996716900030151,33.0,100.0,800.0,10,0.1651308999862522,True,2,0,1.0,[21. 21.],54,0.864,0.8693194000516087,0.6135568998288363,True,far-160,27,1,1,0.75,1,down,8,0
142,True,1.6781535998452455,33.0,100.0,800.0,0,0.1651308999862522,True,2,90,1.0,[21. 21.],9,0.14400000000000002,0.14946909993886948,0.757356199901551,True,far-000,29,11,9,8.25,2,up,1,1
143,True,1.6628592999186367,33.0,100.0,800.0,5,0.08472919999621809,True,2,90,1.0,[21. 21.],62,0.992,0.9985692000482231,0.3938829000107944,True,far-080,28,4,4,3.0,2,down,1,0
144,True,1.6677100001834333,33.0,50.0,100.0,0,0.08472919999621809,True,1,90,1.0,[21. 21.],5,0.08,0.08427489991299808,0.7644615001045167,True,far-rndm,27,6,6,4.5,2,up,1,0
145,True,1.6098137001972646,33.0,50.0,100.0,0,0.08472919999621809,True,1,0,1.0,[21. 21.],8,0.128,0.13419530005194247,0.5962034999392927,True,far-rnd2,29,13,12,9.75,2,down,1,1
146,True,2.0392090000677854,33.0,100.0,800.0,10,0.1650329998228699,True,2,0,1.0,[21. 21.],54,0.864,0.8698648998979479,0.3840557001531124,True,far-160,28,2,2,1.5,0.5,down,8,0
147,True,1.4693138001020998,33.0,50.0,100.0,0,0.1650329998228699,True,1,90,1.0,[21. 21.],5,0.08,0.08421189989894629,0.6752098998986185,True,far-rndm,28,7,7,5.25,2,up,1,0
148,True,1.3742267999332398,33.0,100.0,800.0,0,0.1650329998228699,True,2,90,1.0,[21. 21.],9,0.14400000000000002,0.15007660002447665,0.6510117999278009,True,far-000,30,12,10,9.0,2,up,1,1
149,True,1.4448178000748158,33.0,33.0,100.0,0,0.1650329998228699,False,0,0,1.0,[21. 21.],7,0.112,0.11510460008867085,0.5863876999355853,True,far-rnd2,30,1,1,0.75,2,down,1,0
150,True,1.7231735000386834,33.0,100.0,800.0,5,0.08521589986048639,True,2,0,1.0,[21. 21.],62,0.992,0.9973981000948697,0.3410385998431593,True,far-080,29,5,5,3.75,2,down,1,0
151,True,1.4727992999833077,33.0,50.0,100.0,0,0.08521589986048639,True,1,0,1.0,[21. 21.],7,0.112,0.11790309986099601,0.5542975999414921,True,far-rnd2,31,2,2,1.5,2,down,1,0
152,True,1.9622042998671532,33.0,33.0,100.0,0,0.08521589986048639,False,0,90,1.0,[21. 21.],5,0.08,0.082305199932307,0.5775115001015365,True,far-rndm,29,8,8,6.0,2,up,1,0
153,True,1.1706137000583112,33.0,100.0,800.0,5,0.08511479990556836,True,2,90,1.0,[21. 21.],62,0.992,0.9965876000933349,0.40433520008809865,True,far-080,30,6,6,4.5,2,down,1,0
154,True,1.6383369001559913,33.0,100.0,800.0,0,0.08511479990556836,True,2,90,1.0,[21. 21.],9,0.14400000000000002,0.1526904001366347,1.0874809001106769,True,far-000,31,13,11,9.75,2,up,1,1
155,True,1.409000099869445,33.0,100.0,800.0,10,0.1635555000975728,True,2,0,1.0,[21. 21.],54,0.864,0.8706722999922931,0.3467772000003606,True,far-160,29,3,3,2.25,0.5,down,8,0
156,False,2.4770098999142647,33.0,50.0,100.0,0,0.1635555000975728,True,1,0,1.0,[21. 21.],5,0.08,0.08443940011784434,0.5637355002108961,True,far-rndm,30,9,9,6.75,2,up,1,1
157,True,1.3514545001089573,33.0,100.0,800.0,5,0.08511980017647147,True,2,90,1.0,[21. 21.],62,0.992,0.9981007999740541,0.3043537999037653,True,far-080,31,7,7,5.25,2,down,1,0
158,True,1.3204402001574636,33.0,100.0,800.0,0,0.08511980017647147,True,2,0,1.0,[21. 21.],9,0.14400000000000002,0.1521767999511212,0.6914505998138338,False,far-000,32,14,11,10.5,2,up,1,1
159,True,1.677990600001067,33.0,800.0,100.0,0,0.08511980017647147,True,3,0,1.0,[21. 21.],7,0.112,0.11483939993195236,1.1157445998396724,True,far-rnd2,32,3,3,2.25,2,down,1,0
160,True,1.8197583998553455,33.0,100.0,800.0,10,0.16367419995367527,True,2,0,1.0,[21. 21.],46,0.736,0.740788800176233,0.33603090001270175,True,far-160,30,1,1,0.75,0.5,down,8,0
161,True,1.6709552998654544,33.0,100.0,800.0,0,0.16367419995367527,True,2,90,1.0,[21. 21.],9,0.14400000000000002,0.15159999998286366,0.6907510999590158,True,far-000,33,15,12,11.25,2,up,1,1
162,True,1.5871560999657959,33.0,50.0,100.0,0,0.16367419995367527,True,1,0,1.0,[21. 21.],5,0.08,0.08573300018906593,0.5753315999172628,True,far-rndm,30,9,9,6.75,2,up,1,1
163,True,1.3380928998813033,33.0,800.0,100.0,0,0.16367419995367527,True,3,0,1.0,[21. 21.],7,0.112,0.11485109990462661,1.1216647999826819,True,far-rnd2,33,4,4,3.0,2,down,1,0
164,True,1.732294299872592,33.0,100.0,800.0,10,0.16534979990683496,True,2,90,1.0,[21. 21.],46,0.736,0.7438509999774396,0.30268690013326705,True,far-160,31,2,2,1.5,0.5,down,8,0
165,True,1.3217482001055032,33.0,100.0,800.0,5,0.0847688999492675,True,2,90,1.0,[21. 21.],62,0.992,1.0000165000092238,0.2825336998794228,True,far-080,32,8,8,6.0,2,down,1,0
166,True,1.2856562999077141,33.0,33.0,100.0,0,0.0847688999492675,False,0,90,1.0,[21. 21.],7,0.112,0.11526250001043081,0.5460321998689324,True,far-rnd2,34,5,5,3.75,2,down,1,0
167,True,1.0943448999896646,33.0,100.0,800.0,0,0.0847688999492675,True,2,90,1.0,[21. 21.],9,0.14400000000000002,0.15113300015218556,0.7058598001021892,True,far-000,34,16,13,12.0,2,up,1,1
168,True,1.672422100091353,33.0,100.0,800.0,10,0.1641190000809729,True,2,0,1.0,[21. 21.],46,0.736,0.7457027998752892,0.3296731999143958,True,far-160,32,3,3,2.25,0.5,down,8,0
169,True,1.3687122999690473,33.0,100.0,800.0,10,0.16275379993021488,True,2,90,1.0,[21. 21.],38,0.608,0.6125678999815136,0.3123593998607248,True,far-160,33,1,1,0.75,0.5,down,8,0
170,True,2.4354354001116008,33.0,800.0,100.0,0,0.16275379993021488,True,3,90,1.0,[21. 21.],7,0.112,0.11696319980546832,0.9586961998138577,True,far-rnd2,35,6,6,4.5,2,down,1,0
171,True,1.3053640997968614,33.0,33.0,100.0,0,0.16275379993021488,False,0,0,1.0,[21. 21.],7,0.112,0.11451760004274547,0.5448833000846207,True,far-rnd2,36,7,7,5.25,2,down,1,0
172,True,1.6642021001316607,33.0,100.0,800.0,10,0.16291760001331568,True,2,90,1.0,[21. 21.],38,0.608,0.6158650000579655,0.2588538001291454,True,far-160,34,2,2,1.5,0.5,down,8,0
173,True,1.6142391001340002,33.0,100.0,800.0,10,0.16315720020793378,True,2,0,1.0,[21. 21.],38,0.608,0.6155513001140207,0.31697600008919835,True,far-160,35,3,3,2.25,0.5,down,8,0
174,True,1.5639367999974638,33.0,800.0,100.0,0,0.16315720020793378,True,3,90,1.0,[21. 21.],7,0.112,0.1165601999964565,0.8805608998518437,False,far-rnd2,37,8,7,6.0,2,down,1,0
175,True,1.5485554998740554,33.0,100.0,800.0,10,0.16453760000877082,True,2,0,1.0,[21. 21.],30,0.48,0.48454660014249384,0.4163328998256475,True,far-160,36,1,1,0.75,0.5,down,8,0
176,True,1.4750508000142872,33.0,800.0,100.0,0,0.16453760000877082,True,3,0,1.0,[21. 21.],4,0.064,0.0693930999841541,0.9967290998902172,False,far-rndm,31,1,0,0.75,2,down,1,0
177,True,1.667414499912411,33.0,800.0,100.0,0,0.16453760000877082,True,3,0,1.0,[21. 21.],7,0.112,0.1158912000246346,1.7752574000041932,True,far-rnd2,38,9,8,6.75,2,down,1,1
178,True,1.2608442998025566,33.0,800.0,100.0,0,0.16453760000877082,True,3,90,1.0,[21. 21.],4,0.064,0.06810040003620088,0.8420589999295771,False,far-rndm,32,2,0,1.5,2,down,1,0
179,True,1.724762799916789,33.0,100.0,800.0,10,0.16531149996444583,True,2,90,1.0,[21. 21.],30,0.48,0.4876528000459075,0.4751432999037206,True,far-160,37,2,2,1.5,0.5,down,8,0
180,True,1.5646683999802917,33.0,50.0,100.0,0,0.16531149996444583,True,1,90,1.0,[21. 21.],4,0.064,0.06975160003639758,0.6216106999199837,True,far-rndm,33,3,1,2.25,2,down,1,0
181,True,1.9241869999095798,33.0,100.0,800.0,10,0.16445220005698502,True,2,0,1.0,[21. 21.],30,0.48,0.48651479999534786,0.6853658000472933,True,far-160,38,3,3,2.25,0.5,down,8,0
182,True,1.7723968999926,33.0,800.0,100.0,0,0.16445220005698502,True,3,0,1.0,[21. 21.],3,0.048,0.05133050004951656,1.3526385000441223,True,far-rndm,34,1,1,0.75,2,down,1,0
183,True,1.8173412999603897,33.0,100.0,800.0,10,0.1647489001043141,True,2,0,1.0,[21. 21.],22,0.352,0.35915000014938414,0.616960700135678,True,far-160,39,1,1,0.75,0.5,down,8,0
184,True,3.6010743998922408,33.0,100.0,800.0,10,0.20133489998988807,True,2,90,1.0,[21. 21.],22,0.352,0.3578643000219017,0.4396786999423057,True,far-160,40,2,2,1.5,0.5,down,8,0
185,True,2.0508061998989433,33.0,50.0,100.0,0,0.20133489998988807,True,1,0,1.0,[21. 21.],2,0.032,0.036495700012892485,0.9131679001729935,True,far-rndm,35,1,1,0.75,2,down,1,0
186,True,1.413812099955976,33.0,100.0,800.0,10,0.1633685000706464,True,2,0,1.0,[21. 21.],22,0.352,0.36004770011641085,0.5760941000189632,True,far-160,41,3,3,2.25,0.5,down,8,0
187,False,2.175369899952784,33.0,800.0,100.0,0,0.1633685000706464,True,3,0,1.0,[21. 21.],1,0.016,0.021019099978730083,2.3263423999305815,False,far-rndm,36,1,0,0.75,2,down,1,0
188,True,1.5764006997924298,33.0,100.0,800.0,10,0.1637813001871109,True,2,0,1.0,[21. 21.],14,0.224,0.23276379983872175,0.6267069999594241,True,far-160,42,1,1,0.75,0.5,down,8,0
189,True,1.998723599826917,33.0,50.0,100.0,0,0.1637813001871109,True,1,0,1.0,[21. 21.],1,0.016,0.0208254000172019,0.8330735999625176,True,far-rndm,36,1,1,0.75,2,down,1,0
190,True,1.757335799979046,33.0,50.0,100.0,0,0.1637813001871109,True,1,0,1.0,[21. 21.],0,0.0,0.003931800136342645,0.7729793000034988,True,far-rndm,37,1,1,0.75,2,down,1,0
191,True,1.4128326000645757,33.0,100.0,800.0,10,0.1647709000390023,True,2,90,1.0,[21. 21.],14,0.224,0.23191730002872646,0.6119788000360131,True,far-160,43,2,2,1.5,0.5,down,8,0
192,True,2.2999435998499393,33.0,100.0,800.0,10,0.16420979984104633,True,2,0,1.0,[21. 21.],14,0.224,0.2311537000350654,0.6862689999397844,True,far-160,44,3,3,2.25,0.5,down,8,0
193,True,2.0702591000590473,33.0,33.0,100.0,0,0.16420979984104633,False,0,0,1.0,[21. 21.],0,0.0,0.0007788001094013453,0.9785454999655485,False,far-rndm,38,1,0,0.75,2,down,1,0
194,False,1.2982845001388341,33.0,100.0,800.0,10,0.16304629994556308,True,2,0,1.0,[21. 21.],6,0.096,0.10096640000119805,0.764307500096038,False,far-160,45,1,0,0.75,0.5,down,8,0
195,True,1.40930030005984,33.0,33.0,100.0,0,0.16304629994556308,False,0,0,1.0,[21. 21.],6,0.096,0.09798739990219474,0.5143192999530584,True,far-rnd2,39,1,1,0.75,2,down,1,1
196,True,1.0710913001094013,33.0,800.0,100.0,0,0.16304629994556308,True,3,90,1.0,[21. 21.],0,0.0,0.003965100040659308,1.2665282997768372,False,far-rndm,39,2,0,1.5,2,down,1,1
197,True,1.438918299973011,33.0,800.0,100.0,0,0.16304629994556308,True,3,90,1.0,[21. 21.],0,0.0,0.003909899853169918,1.1092921998351812,False,far-rndm,40,3,0,2.25,2,down,1,1
198,True,1.5744948000647128,33.0,100.0,800.0,10,0.1661247001029551,True,2,0,1.0,[21. 21.],6,0.096,0.10263079986907542,0.5418884998653084,False,far-160,45,1,0,0.75,0.5,down,8,0
199,True,2.568777000065893,33.0,33.0,100.0,0,0.1661247001029551,False,0,0,1.0,[21. 21.],5,0.08,0.08237949991598725,0.537944900104776,True,far-rnd2,40,1,1,0.75,2,down,1,1
200,True,1.329731100006029,33.0,50.0,100.0,0,0.1661247001029551,True,1,0,1.0,[21. 21.],1,0.016,0.02124479995109141,0.745224499842152,True,far-rndm,41,1,1,0.75,2,up,1,0
201,True,1.6955092998687178,33.0,100.0,800.0,10,0.1634717001579702,True,2,0,1.0,[21. 21.],14,0.224,0.23183089983649552,0.6982555999420583,True,far-160,46,1,1,0.75,0.5,up,4,0
202,True,2.4445578001905233,33.0,800.0,100.0,0,0.1634717001579702,True,3,0,1.0,[21. 21.],4,0.064,0.0677711998578161,0.838866800069809,True,far-rnd2,41,1,1,0.75,2,down,1,1
203,True,2.0738959999289364,33.0,100.0,800.0,10,0.16530640004202724,True,2,0,1.0,[21. 21.],14,0.224,0.2287507001310587,0.607712300028652,True,far-160,47,2,2,1.5,1,up,4,0
204,True,1.8213847998995334,33.0,33.0,100.0,0,0.16530640004202724,False,0,0,1.0,[21. 21.],1,0.016,0.019394599832594395,0.9068014000076801,True,far-rndm,42,2,2,1.5,2,up,1,0
205,True,1.1709616999141872,33.0,33.0,100.0,0,0.16530640004202724,False,0,90,1.0,[21. 21.],1,0.016,0.019146200036630034,0.8213871999178082,True,far-rndm,43,3,3,2.25,2,up,1,0
206,True,1.867574700154364,33.0,100.0,800.0,10,0.16305879992432892,True,2,90,1.0,[21. 21.],14,0.224,0.22947679995559156,0.6954649998806417,True,far-160,48,3,3,2.25,1,up,4,0
207,True,1.3052904000505805,33.0,100.0,800.0,10,0.16256430000066757,True,2,0,1.0,[21. 21.],14,0.224,0.23220169986598194,0.6750238998793066,True,far-160,49,4,4,3.0,1,up,4,0
208,True,1.6092653998639435,33.0,33.0,100.0,0,0.16256430000066757,False,0,90,1.0,[21. 21.],1,0.016,0.018075300147756934,0.7452295999974012,True,far-rndm,44,4,4,3.0,2,up,1,0
209,True,1.2233700000215322,33.0,100.0,800.0,10,0.1646467000246048,True,2,90,1.0,[21. 21.],14,0.224,0.23074789997190237,0.6976719999220222,True,far-160,50,5,5,3.75,1,up,4,0
210,True,2.4507136999163777,33.0,33.0,100.0,0,0.1646467000246048,False,0,0,1.0,[21. 21.],1,0.016,0.01724760001525283,0.7336854999884963,True,far-rndm,45,5,5,3.75,2,up,1,0
211,True,1.0255350000225008,33.0,100.0,800.0,10,0.16334620001725852,True,2,0,1.0,[21. 21.],10,0.16,0.1678399001248181,0.7581803998909891,False,far-160,51,1,0,0.75,1,down,2,0
212,True,1.7124257001560181,33.0,800.0,100.0,0,0.16334620001725852,True,3,90,1.0,[21. 21.],1,0.016,0.019744500052183867,0.921110900118947,False,far-rndm,46,6,5,4.5,2,up,1,0
213,True,1.5464500999078155,33.0,50.0,100.0,0,0.16334620001725852,True,1,90,1.0,[21. 21.],1,0.016,0.021172899985685945,0.6340908000711352,True,far-rndm,47,7,6,5.25,2,up,1,0
214,True,1.8005039000418037,33.0,100.0,800.0,10,0.16411400004290044,True,2,90,1.0,[21. 21.],10,0.16,0.16674640006385744,0.6065696000587195,True,far-160,52,2,1,1.5,1,down,2,0
215,True,1.8038781001232564,33.0,800.0,100.0,0,0.16411400004290044,True,3,90,1.0,[21. 21.],1,0.016,0.019886600086465478,0.918468999909237,False,far-rndm,48,8,6,6.0,2,up,1,0
216,True,1.3967249998822808,33.0,100.0,800.0,10,0.16482169996015728,True,2,90,1.0,[21. 21.],10,0.16,0.16963479993864894,0.6178000001236796,True,far-160,53,3,2,2.25,1,down,2,0
217,False,1.9234029999934137,33.0,800.0,100.0,0,0.16482169996015728,True,3,90,1.0,[21. 21.],3,0.048,0.0517792000900954,0.7593493000604212,True,far-rnd2,42,1,1,0.75,2,down,1,1
218,True,1.4928416998591274,33.0,800.0,100.0,0,0.16482169996015728,True,3,90,1.0,[21. 21.],1,0.016,0.01913199992850423,0.8735565000679344,True,far-rndm,49,9,7,6.75,2,up,1,1
219,True,1.7306935000233352,33.0,100.0,800.0,10,0.16519799991510808,True,2,90,1.0,[21. 21.],10,0.16,0.16535050002858043,0.7648469998966902,True,far-160,54,4,3,3.0,1,down,2,0
220,True,1.5224649000447243,33.0,100.0,800.0,10,0.16419919999316335,True,2,90,1.0,[21. 21.],10,0.16,0.16856200015172362,0.5288453998509794,True,far-160,55,5,4,3.75,1,down,2,0
221,True,1.869167400058359,33.0,33.0,100.0,0,0.16419919999316335,False,0,0,1.0,[21. 21.],3,0.048,0.050104100024327636,0.9331077001988888,False,far-rnd2,42,1,0,0.75,2,down,1,1
222,True,1.2671216998714954,33.0,33.0,100.0,0,0.16419919999316335,False,0,90,1.0,[21. 21.],3,0.048,0.049884599866345525,0.6396673999261111,True,far-rnd2,43,2,1,1.5,2,down,1,1
223,True,0.8275466999039054,33.0,100.0,800.0,10,0.164646300021559,True,2,0,1.0,[21. 21.],10,0.16,0.16750690015032887,0.6442388000432402,False,far-160,56,6,4,4.5,1,down,2,0
224,True,1.9362831998150796,33.0,800.0,100.0,0,0.164646300021559,True,3,0,1.0,[21. 21.],1,0.016,0.01977350004017353,1.0152777000330389,False,far-rndm,50,10,7,7.5,2,up,1,1
225,True,3.3470942999701947,33.0,800.0,100.0,0,0.164646300021559,True,3,0,1.0,[21. 21.],1,0.016,0.019539000000804663,0.6986594998743385,False,far-rndm,51,11,7,8.25,2,up,1,1
226,True,2.3522137999534607,33.0,100.0,800.0,10,0.16312119993381202,True,2,0,1.0,[21. 21.],10,0.16,0.16575859999284148,0.5684666999150068,True,far-160,57,7,5,5.25,1,down,2,0
227,True,1.3854059998411685,33.0,50.0,100.0,0,0.16312119993381202,True,1,0,1.0,[21. 21.],2,0.032,0.038081099977716804,0.6405714000575244,True,far-rnd2,44,1,1,0.75,2,down,1,1
228,True,1.3602822001557797,33.0,800.0,100.0,0,0.16312119993381202,True,3,0,1.0,[21. 21.],1,0.016,0.020115199964493513,0.9024708000943065,False,far-rnd2,45,1,0,0.75,2,down,1,1
229,True,1.30972020002082,33.0,100.0,800.0,10,0.16352989990264177,True,2,90,1.0,[21. 21.],10,0.16,0.1659432000014931,0.666802000021562,True,far-160,58,8,6,6.0,1,down,2,0
230,True,1.4884665999561548,33.0,800.0,100.0,0,0.16352989990264177,True,3,0,1.0,[21. 21.],1,0.016,0.019003699999302626,0.6869936001021415,False,far-rndm,52,12,7,9.0,2,up,1,1
231,True,1.4455534999724478,33.0,100.0,800.0,10,0.2036272999830544,True,2,0,1.0,[21. 21.],10,0.16,0.16528379986993968,0.6389105999842286,True,far-160,59,9,7,6.75,1,down,2,1
232,True,1.6517721000127494,33.0,50.0,100.0,0,0.2036272999830544,True,1,0,1.0,[21. 21.],1,0.016,0.020366899902001023,0.708612599875778,True,far-rnd2,46,2,1,1.5,2,down,1,2
233,True,1.4865859001874924,33.0,800.0,100.0,0,0.2036272999830544,True,3,90,1.0,[21. 21.],1,0.016,0.01875990000553429,0.8215303001925349,True,far-rndm,53,13,8,9.75,2,up,1,1
234,True,1.4489823998883367,33.0,50.0,100.0,0,0.2036272999830544,True,1,0,1.0,[21. 21.],0,0.0,0.005309300031512976,0.6201700000092387,False,far-rnd2,47,1,0,0.75,2,down,1,2
235,True,1.717059399932623,33.0,100.0,800.0,10,0.16312890010885894,True,2,0,1.0,[21. 21.],10,0.16,0.16620020009577274,0.5379109000787139,True,far-160,60,10,8,7.5,1,down,2,1
236,False,1.6598465000279248,33.0,800.0,100.0,0,0.16312890010885894,True,3,0,1.0,[21. 21.],1,0.016,0.021311999997124076,1.2081893999129534,True,far-rndm,54,14,9,10.5,2,up,1,1
237,True,1.8060465999878943,33.0,800.0,100.0,0,0.16312890010885894,True,3,0,1.0,[21. 21.],1,0.016,0.021323800086975098,0.7490853001363575,False,far-rndm,54,14,8,10.5,2,up,1,1
238,True,1.5385545999743044,33.0,100.0,800.0,10,0.16407920001074672,True,2,90,1.0,[21. 21.],10,0.16,0.1661276000086218,0.5274686999619007,True,far-160,61,11,9,8.25,1,down,2,1
239,True,1.5715468998532742,33.0,50.0,100.0,0,0.16407920001074672,True,1,90,1.0,[21. 21.],0,0.0,0.005310399923473597,0.8551162001676857,True,far-rnd2,48,2,1,1.5,2,down,1,2
240,True,1.1787058000918478,33.0,100.0,800.0,10,0.16405009990558028,True,2,0,1.0,[21. 21.],10,0.16,0.16823159996420145,0.5496827999595553,True,far-160,62,12,10,9.0,1,down,2,1
241,True,1.4232273001689464,33.0,33.0,100.0,0,0.16405009990558028,False,0,90,1.0,[21. 21.],2,0.032,0.03520529996603727,0.7799414999317378,False,far-rndm,55,1,0,0.75,2,up,1,0
242,True,1.1586645999923348,33.0,800.0,100.0,0,0.16405009990558028,True,3,90,1.0,[21. 21.],2,0.032,0.035344099858775735,0.9429942001588643,True,far-rndm,56,2,1,1.5,2,up,1,0
243,True,1.671446799999103,33.0,100.0,800.0,10,0.16367279994301498,True,2,0,1.0,[21. 21.],10,0.16,0.16861499985679984,0.617791699944064,True,far-160,63,13,11,9.75,1,down,2,1
244,True,1.2975971999112517,33.0,100.0,800.0,10,0.16518839984200895,True,2,90,1.0,[21. 21.],9,0.14400000000000002,0.14918399997986853,0.5884146001189947,True,far-160,64,1,1,0.75,1,down,1,0
245,True,1.7382030000444502,33.0,33.0,100.0,0,0.16518839984200895,False,0,0,1.0,[21. 21.],2,0.032,0.03492689994163811,0.658660399960354,True,far-rndm,57,3,2,2.25,2,up,1,0
246,True,1.381448700092733,33.0,800.0,100.0,0,0.16518839984200895,True,3,0,1.0,[21. 21.],2,0.032,0.03495570016093552,0.9597543999552727,False,far-rndm,58,4,2,3.0,2,up,1,0
247,True,1.4300612001679838,33.0,100.0,800.0,10,0.16417689993977547,True,2,0,1.0,[21. 21.],9,0.14400000000000002,0.14856430003419518,0.5498143001459539,True,far-160,65,2,2,1.5,2,down,1,0
248,True,1.2510578997898847,33.0,100.0,800.0,10,0.16465639998205006,True,2,0,1.0,[21. 21.],9,0.14400000000000002,0.1521216998808086,0.5039937000256032,True,far-160,66,3,3,2.25,2,down,1,0
249,True,1.4890493000857532,33.0,33.0,100.0,0,0.16465639998205006,False,0,90,1.0,[21. 21.],2,0.032,0.03398169996216893,0.6436469000764191,True,far-rndm,59,5,3,3.75,2,up,1,0
250,True,0.8593927999027073,33.0,100.0,800.0,10,0.16453519999049604,True,2,90,1.0,[21. 21.],9,0.14400000000000002,0.14966090000234544,0.5951932000461966,True,far-160,67,4,4,3.0,2,down,1,0
251,True,1.282255999976769,33.0,800.0,100.0,0,0.16453519999049604,True,3,0,1.0,[21. 21.],2,0.032,0.03534159995615482,0.8484817000571638,True,far-rndm,60,6,4,4.5,2,up,1,0
252,True,1.6208838000893593,33.0,33.0,100.0,0,0.16453519999049604,False,0,90,1.0,[21. 21.],2,0.032,0.03375390009023249,0.6497482999693602,False,far-rndm,61,7,4,5.25,2,up,1,0
253,True,0.9668594999238849,33.0,100.0,800.0,10,0.16430480009876192,True,2,0,1.0,[21. 21.],9,0.14400000000000002,0.15140009997412562,0.5545058001298457,False,far-160,68,5,4,3.75,2,down,1,0
254,True,1.8349978001788259,33.0,100.0,800.0,10,0.16397370002232492,True,2,90,1.0,[21. 21.],9,0.14400000000000002,0.15101240016520023,0.7425657999701798,True,far-160,69,6,5,4.5,2,down,1,0
255,True,1.4434549999423325,33.0,800.0,100.0,0,0.16397370002232492,True,3,0,1.0,[21. 21.],2,0.032,0.03500899998471141,0.8444618000648916,True,far-rndm,62,8,5,6.0,2,up,1,0
256,True,1.4168457998894155,33.0,33.0,100.0,0,0.16397370002232492,False,0,0,1.0,[21. 21.],2,0.032,0.034726500045508146,0.6696617999114096,True,far-rndm,63,9,6,6.75,2,up,1,1
257,False,1.3153518000617623,33.0,33.0,100.0,0,0.16397370002232492,False,0,90,1.0,[21. 21.],0,0.0,0.0021355999633669853,0.9587172002065927,False,far-rnd2,49,1,0,0.75,2,down,1,2
258,True,1.4746638999786228,33.0,100.0,800.0,10,0.16379079991020262,True,2,90,1.0,[21. 21.],9,0.14400000000000002,0.151510399999097,0.7108139998745173,True,far-160,70,7,6,5.25,2,down,1,0
259,True,1.8950914999004453,33.0,100.0,800.0,10,0.1646275999955833,True,2,90,1.0,[21. 21.],9,0.14400000000000002,0.1517129000276327,0.7150600999593735,True,far-160,71,8,7,6.0,2,down,1,0
260,True,2.0545389999169856,33.0,800.0,100.0,0,0.1646275999955833,True,3,0,1.0,[21. 21.],0,0.0,0.004266700008884072,1.1085873998235911,True,far-rnd2,49,1,1,0.75,2,down,1,2
261,True,1.5714994000736624,33.0,33.0,100.0,0,0.1646275999955833,False,0,0,1.0,[21. 21.],2,0.032,0.03525309986434877,0.7208495999220759,True,far-rndm,64,10,7,7.5,2,up,1,1
262,True,1.3382633000146598,33.0,33.0,100.0,0,0.1646275999955833,False,0,0,1.0,[21. 21.],0,0.0,0.0021187998354434967,0.6062599001452327,False,far-rnd2,50,1,0,0.75,2,down,1,2
263,True,0.9959778999909759,33.0,100.0,800.0,10,0.1638944000005722,True,2,90,1.0,[21. 21.],9,0.14400000000000002,0.1488769999705255,0.7375396999996156,False,far-160,72,9,7,6.75,2,down,1,1
264,True,1.7049508998170495,33.0,33.0,100.0,0,0.1638944000005722,False,0,90,1.0,[21. 21.],2,0.032,0.03396839997731149,0.5853104998823255,True,far-rndm,65,11,8,8.25,2,up,1,1
265,True,1.0588672999292612,33.0,800.0,100.0,0,0.1638944000005722,True,3,0,1.0,[21. 21.],0,0.0,0.004554900107905269,2.9973139001522213,False,far-rnd2,51,2,0,1.5,2,down,1,2
266,True,2.1417996999807656,33.0,100.0,800.0,10,0.18081839988008142,True,2,90,1.0,[21. 21.],9,0.14400000000000002,0.14934279979206622,0.5139170999173075,True,far-160,73,10,8,7.5,2,down,1,1
267,True,1.5634944001212716,33.0,50.0,100.0,0,0.18081839988008142,True,1,90,1.0,[21. 21.],0,0.0,0.005186799913644791,0.5582938001025468,True,far-rnd2,52,3,1,2.25,2,down,1,2
268,True,1.0784663001541048,33.0,800.0,100.0,0,0.18081839988008142,True,3,0,1.0,[21. 21.],2,0.032,0.03601649985648692,1.1950435999315232,True,far-rndm,66,12,9,9.0,2,up,1,1
269,True,1.7261590999551117,33.0,100.0,800.0,10,0.16493149986490607,True,2,0,1.0,[21. 21.],9,0.14400000000000002,0.1525276000611484,0.6238028998486698,True,far-160,74,11,9,8.25,2,down,1,1
270,True,1.6286349000874907,33.0,100.0,800.0,10,0.1647506000008434,True,2,90,1.0,[21. 21.],9,0.14400000000000002,0.14920109999366105,0.5040373001247644,True,far-160,75,12,10,9.0,2,down,1,1
271,True,1.768040900118649,33.0,800.0,100.0,0,0.1647506000008434,True,3,90,1.0,[21. 21.],2,0.032,0.03785520000383258,0.9747244999743998,True,far-rndm,67,13,10,9.75,2,up,1,1
272,True,1.339422000106424,33.0,800.0,100.0,0,0.1647506000008434,True,3,0,1.0,[21. 21.],0,0.0,0.0038973998744040728,0.889212999958545,False,far-rnd2,53,1,0,0.75,2,down,1,2
273,True,1.3738108999095857,33.0,100.0,800.0,10,0.16510639991611242,True,2,90,1.0,[21. 21.],9,0.14400000000000002,0.1515510999597609,0.4774971001315862,True,far-160,76,13,11,9.75,2,down,1,1
274,True,1.089513499988243,33.0,33.0,100.0,0,0.16510639991611242,False,0,90,1.0,[21. 21.],2,0.032,0.03376609995029867,0.46821999992243946,True,far-rndm,68,14,11,10.5,2,up,1,1
275,True,1.1833989000879228,33.0,800.0,100.0,0,0.16510639991611242,True,3,90,1.0,[21. 21.],0,0.0,0.004206400131806731,0.7312083998695016,True,far-rnd2,54,2,1,1.5,2,down,1,3
276,True,1.613437799969688,33.0,100.0,800.0,10,0.16394899995066226,True,2,0,1.0,[21. 21.],9,0.14400000000000002,0.15256870002485812,0.6061176001094282,False,far-160,77,14,11,10.5,2,down,1,1
277,True,1.1776250000111759,33.0,800.0,100.0,0,0.16394899995066226,True,3,0,1.0,[21. 21.],0,0.0,0.004008800024166703,1.4052122000139207,False,far-rnd2,55,1,0,0.75,2,down,1,3
278,True,1.2873647001106292,33.0,33.0,100.0,0,0.16394899995066226,False,0,0,1.0,[21. 21.],2,0.032,0.03590240003541112,0.5840524001978338,True,far-rndm,69,15,12,11.25,2,up,1,1
279,True,1.1154241999611259,33.0,50.0,100.0,0,0.16394899995066226,True,1,0,1.0,[21. 21.],0,0.0,0.005578499985858798,0.6241045000497252,True,far-rnd2,56,2,1,1.5,2,down,1,3
280,True,1.3273227999452502,33.0,800.0,100.0,0,0.16394899995066226,True,3,90,1.0,[21. 21.],2,0.032,0.036522199865430593,0.8332569999620318,True,far-rndm,70,16,13,12.0,2,up,1,1
281,True,1.784791300073266,33.0,100.0,800.0,10,0.16448569996282458,True,2,0,1.0,[21. 21.],9,0.14400000000000002,0.15113840019330382,0.44351179990917444,True,far-160,78,15,12,11.25,2,down,1,1
282,True,1.3754455000162125,33.0,800.0,100.0,0,0.16448569996282458,True,3,90,1.0,[21. 21.],2,0.032,0.03585240012034774,0.7260763000231236,False,far-rndm,71,17,13,12.75,2,up,1,2
283,True,1.6038236001040787,33.0,50.0,100.0,0,0.16448569996282458,True,1,90,1.0,[21. 21.],0,0.0,0.005597200011834502,0.6814455999992788,False,far-rnd2,57,1,0,0.75,2,down,1,3
284,True,1.271572999889031,33.0,100.0,800.0,10,0.1661964999511838,True,2,0,1.0,[21. 21.],9,0.14400000000000002,0.14898200007155538,0.3046015000436455,False,far-160,79,16,12,12.0,2,down,1,1
