trial,primeCorrect,primeTime,primeDepth,stimDepth,extraDepth,driveFrames,nearToFar,diopters,direction,size,intensity,extraLatency,mainLatency,totalLatency,responseTime,correct,caseLabel,caseTrial,trialsAtStep,stepCorrect,expected,w,direction,stepsize,stepChange
4,TRUE,1.3268511,33,100,800,0,TRUE,2,start,0.25,60,0,0.9963495,0.9963495,0.7108546,TRUE,far-000,1,1,1,0.75,0.5,start,16,0
10,TRUE,1.3285474,33,100,800,0,TRUE,2,start,0.25,60,0,0.9932106,0.9932106,0.3343922,TRUE,far-000,2,2,2,1.5,1,start,16,0
15,TRUE,2.121056,33,100,800,0,TRUE,2,start,0.25,60,0,1.0048005,1.0048005,0.3906012,TRUE,far-000,3,3,3,2.25,1,start,16,0
20,TRUE,5.2470654,33,100,800,0,TRUE,2,down,0.25,44,0,0.7439386,0.7439386,0.6207151,TRUE,far-000,4,1,1,0.75,0.5,down,16,0
23,TRUE,1.2975263,33,100,800,0,TRUE,2,down,0.25,44,0,0.7351466,0.7351466,0.5117209,TRUE,far-000,5,2,2,1.5,1,down,16,0
26,TRUE,1.6014246,33,100,800,0,TRUE,2,down,0.25,44,0,0.7354086,0.7354086,0.3989258,TRUE,far-000,6,3,3,2.25,1,down,16,0
32,TRUE,7.0238263,33,100,800,0,TRUE,2,down,0.25,28,0,0.4799114,0.4799114,1.0446082,FALSE,far-000,7,1,0,0.75,0.5,down,16,0
39,TRUE,1.6800764,33,100,800,0,TRUE,2,down,0.25,28,0,0.4818013,0.4818013,0.808587,TRUE,far-000,8,2,1,1.5,1,down,16,0
43,FALSE,2.0491756,33,100,800,0,TRUE,2,down,0.25,28,0,0.4809059,0.4809059,0.6305038,TRUE,far-000,9,3,2,2.25,1,down,16,0
47,TRUE,1.6884149,33,100,800,0,TRUE,2,down,0.25,28,0,0.4837765,0.4837765,0.708383,FALSE,far-000,9,3,1,2.25,1,down,16,0
51,TRUE,1.0544014,33,100,800,0,TRUE,2,up,0.25,44,0,0.7365186,0.7365186,0.6739268,TRUE,far-000,10,1,1,0.75,0.5,up,8,0
58,TRUE,1.4772005,33,100,800,0,TRUE,2,up,0.25,44,0,0.7363767,0.7363767,0.4834241,TRUE,far-000,11,2,2,1.5,1,up,8,0
65,TRUE,2.0023908,33,100,800,0,TRUE,2,up,0.25,44,0,0.7394828,0.7394828,0.460533,TRUE,far-000,12,3,3,2.25,1,up,8,0
66,TRUE,1.257363,33,100,800,0,TRUE,2,up,0.25,44,0,0.7396671,0.7396671,0.4617177,TRUE,far-000,13,4,4,3,1,up,8,0
72,TRUE,1.4873136,33,100,800,0,TRUE,2,up,0.25,44,0,0.7403908,0.7403908,0.5619471,TRUE,far-000,14,5,5,3.75,1,up,8,0
76,TRUE,5.6055829,33,100,800,0,TRUE,2,down,0.25,36,0,0.6072893,0.6072893,0.9400592,TRUE,far-000,15,1,1,0.75,1,down,4,0
85,TRUE,2.9492995,33,100,800,0,TRUE,2,down,0.25,36,0,0.6165228,0.6165228,1.3293486,FALSE,far-000,16,2,1,1.5,1,down,4,0
86,TRUE,1.792277,33,100,800,0,TRUE,2,down,0.25,36,0,0.6139676,0.6139676,0.6092097,TRUE,far-000,17,3,2,2.25,1,down,4,0
93,TRUE,19.4091873,33,100,800,0,TRUE,2,down,0.25,36,0,0.6131396,0.6131396,0.6629853,TRUE,far-000,18,4,3,3,1,down,4,0
100,TRUE,1.6256516,33,100,800,0,TRUE,2,down,0.25,36,0,0.6165482,0.6165482,0.5901544,TRUE,far-000,19,5,4,3.75,1,down,4,0
103,TRUE,3.5333833,33,100,800,0,TRUE,2,down,0.25,36,0,0.6063749,0.6063749,1.1164354,TRUE,far-000,20,6,5,4.5,1,down,4,0
108,TRUE,1.4327313,33,100,800,0,TRUE,2,down,0.25,36,0,0.6104426,0.6104426,0.5892827,TRUE,far-000,21,7,6,5.25,1,down,4,0
112,TRUE,5.3283747,33,100,800,0,TRUE,2,down,0.25,36,0,0.6147363,0.6147363,0.5670101,TRUE,far-000,22,8,7,6,1,down,4,0
118,TRUE,3.0916498,33,100,800,0,TRUE,2,down,0.25,36,0,0.6082149,0.6082149,0.6547335,TRUE,far-000,23,9,8,6.75,1,down,4,1
125,TRUE,1.1765293,33,100,800,0,TRUE,2,down,0.25,34,0,0.5776758,0.5776758,1.2395836,TRUE,far-000,24,1,1,0.75,1,down,2,0
130,TRUE,1.744018,33,100,800,0,TRUE,2,down,0.25,34,0,0.5821578,0.5821578,0.9471802,TRUE,far-000,25,2,2,1.5,2,down,2,0
133,TRUE,1.907699,33,100,800,0,TRUE,2,down,0.25,34,0,0.5778253,0.5778253,0.5577618,TRUE,far-000,26,3,3,2.25,2,down,2,0
138,TRUE,2.8698042,33,100,800,0,TRUE,2,down,0.25,34,0,0.5741571,0.5741571,0.4997524,TRUE,far-000,27,4,4,3,2,down,2,0
144,TRUE,1.4704702,33,100,800,0,TRUE,2,down,0.25,34,0,0.6749119,0.6749119,0.5790742,TRUE,far-000,28,5,5,3.75,2,down,2,0
149,TRUE,3.3495296,33,100,800,0,TRUE,2,down,0.25,34,0,0.5779561,0.5779561,0.5218999,TRUE,far-000,29,6,6,4.5,2,down,2,0
151,TRUE,1.5844769,33,100,800,0,TRUE,2,down,0.25,34,0,0.5824343,0.5824343,0.7152151,TRUE,far-000,30,7,7,5.25,2,down,2,0
159,TRUE,2.4453813,33,100,800,0,TRUE,2,down,0.25,34,0,0.5776372,0.5776372,0.8111864,TRUE,far-000,31,8,8,6,2,down,2,0
161,TRUE,2.0293624,33,100,800,0,TRUE,2,down,0.25,34,0,0.5783787,0.5783787,0.6654881,TRUE,far-000,32,9,9,6.75,2,down,2,1
169,TRUE,2.5209702,33,100,800,0,TRUE,2,down,0.25,33,0,0.5624904,0.5624904,0.5363723,TRUE,far-000,33,1,1,0.75,2,down,1,0
173,TRUE,1.6834343,33,100,800,0,TRUE,2,down,0.25,33,0,0.5612794,0.5612794,0.5459505,TRUE,far-000,34,2,2,1.5,2,down,1,0
179,TRUE,2.2535862,33,100,800,0,TRUE,2,down,0.25,33,0,0.5593458,0.5593458,0.717217,TRUE,far-000,35,3,3,2.25,2,down,1,0
182,TRUE,1.7126569,33,100,800,0,TRUE,2,down,0.25,33,0,0.5582812,0.5582812,0.6235949,TRUE,far-000,36,4,4,3,2,down,1,0
187,TRUE,3.7847331,33,100,800,0,TRUE,2,down,0.25,33,0,0.5662561,0.5662561,1.353339,TRUE,far-000,37,5,5,3.75,2,down,1,0
192,TRUE,2.1926103,33,100,800,0,TRUE,2,down,0.25,33,0,0.5672859,0.5672859,0.6231474,TRUE,far-000,38,6,6,4.5,2,down,1,0
199,TRUE,2.4875791,33,100,800,0,TRUE,2,down,0.25,33,0,0.5593399,0.5593399,0.9341239,FALSE,far-000,39,7,6,5.25,2,down,1,0
201,FALSE,1.9165424,33,100,800,0,TRUE,2,down,0.25,33,0,0.564574,0.564574,0.6969787,TRUE,far-000,40,8,7,6,2,down,1,0
210,TRUE,1.9255838,33,100,800,0,TRUE,2,down,0.25,33,0,0.5631316,0.5631316,0.6317712,TRUE,far-000,40,8,7,6,2,down,1,0
213,TRUE,6.191413,33,100,800,0,TRUE,2,down,0.25,33,0,0.5679442,0.5679442,0.5706637,TRUE,far-000,41,9,8,6.75,2,down,1,1
217,TRUE,3.3278378,33,100,800,0,TRUE,2,down,0.25,33,0,0.5614236,0.5614236,0.6329269,TRUE,far-000,42,10,9,7.5,2,down,1,1
225,TRUE,3.6364359,33,100,800,0,TRUE,2,down,0.25,33,0,0.5636867,0.5636867,0.5205852,TRUE,far-000,43,11,10,8.25,2,down,1,1
230,TRUE,1.7910951,33,100,800,0,TRUE,2,down,0.25,33,0,0.5615584,0.5615584,0.5865887,TRUE,far-000,44,12,11,9,2,down,1,1
235,TRUE,2.4803176,33,100,800,0,TRUE,2,down,0.25,33,0,0.5695693,0.5695693,0.5249437,TRUE,far-000,45,13,12,9.75,2,down,1,1
236,TRUE,2.3156432,33,100,800,0,TRUE,2,down,0.25,32,0,0.5514642,0.5514642,0.5511588,TRUE,far-000,46,1,1,0.75,2,down,1,0
242,TRUE,2.2219229,33,100,800,0,TRUE,2,down,0.25,32,0,0.5550892,0.5550892,0.8610289,TRUE,far-000,47,2,2,1.5,2,down,1,0
248,TRUE,1.7864885,33,100,800,0,TRUE,2,down,0.25,32,0,0.5560795,0.5560795,0.6729103,TRUE,far-000,48,3,3,2.25,2,down,1,0
251,TRUE,2.1106743,33,100,800,0,TRUE,2,down,0.25,32,0,0.5445291,0.5445291,0.6718474,TRUE,far-000,49,4,4,3,2,down,1,0
255,TRUE,2.633356,33,100,800,0,TRUE,2,down,0.25,32,0,0.5413449,0.5413449,0.6232568,TRUE,far-000,50,5,5,3.75,2,down,1,0
257,TRUE,2.9954995,33,100,800,0,TRUE,2,down,0.25,32,0,0.5486295,0.5486295,0.8326516,FALSE,far-000,51,6,5,4.5,2,down,1,0
259,TRUE,3.685869,33,100,800,0,TRUE,2,down,0.25,32,0,0.5489621,0.5489621,0.8070956,TRUE,far-000,52,7,6,5.25,2,down,1,0
260,TRUE,1.5228233,33,100,800,0,TRUE,2,down,0.25,32,0,0.5481284,0.5481284,0.7289218,TRUE,far-000,53,8,7,6,2,down,1,0
263,TRUE,3.7713326,33,100,800,0,TRUE,2,down,0.25,32,0,0.5484366,0.5484366,0.3852721,TRUE,far-000,54,9,8,6.75,2,down,1,1
264,TRUE,2.1249177,33,100,800,0,TRUE,2,down,0.25,32,0,0.5451156,0.5451156,0.540943,TRUE,far-000,55,10,9,7.5,2,down,1,1
267,TRUE,1.6798704,33,100,800,0,TRUE,2,down,0.25,32,0,0.552078,0.552078,0.7350349,TRUE,far-000,56,11,10,8.25,2,down,1,1
269,TRUE,2.1168369,33,100,800,0,TRUE,2,down,0.25,32,0,0.5485009,0.5485009,0.6095557,TRUE,far-000,57,12,11,9,2,down,1,1
271,TRUE,1.0705476,33,100,800,0,TRUE,2,down,0.25,32,0,0.5444972,0.5444972,0.5287993,TRUE,far-000,58,13,12,9.75,2,down,1,1
273,TRUE,1.493816,33,100,800,0,TRUE,2,down,0.25,31,0,0.5378077,0.5378077,0.4749162,TRUE,far-000,59,1,1,0.75,2,down,1,0
274,TRUE,4.0651764,33,100,800,0,TRUE,2,down,0.25,31,0,0.5330803,0.5330803,0.543485,TRUE,far-000,60,2,2,1.5,2,down,1,0
276,TRUE,1.1073623,33,100,800,0,TRUE,2,down,0.25,31,0,0.5299467,0.5299467,0.7173676,TRUE,far-000,61,3,3,2.25,2,down,1,0
279,TRUE,2.6503948,33,100,800,0,TRUE,2,down,0.25,31,0,0.5292114,0.5292114,0.5034679,TRUE,far-000,62,4,4,3,2,down,1,0
280,TRUE,1.5761219,33,100,800,0,TRUE,2,down,0.25,31,0,0.5319639,0.5319639,0.5194627,TRUE,far-000,63,5,5,3.75,2,down,1,0
283,TRUE,1.6088915,33,100,800,0,TRUE,2,down,0.25,31,0,0.5388025,0.5388025,0.5691517,TRUE,far-000,64,6,6,4.5,2,down,1,0
285,TRUE,3.2665621,33,100,800,0,TRUE,2,down,0.25,31,0,0.5306484,0.5306484,0.623729,TRUE,far-000,65,7,7,5.25,2,down,1,0
286,TRUE,3.1624639,33,100,800,0,TRUE,2,down,0.25,31,0,0.5336033,0.5336033,1.2723901,TRUE,far-000,66,8,8,6,2,down,1,0
288,TRUE,2.342861,33,100,800,0,TRUE,2,down,0.25,31,0,0.5285297,0.5285297,1.1865289,FALSE,far-000,67,9,8,6.75,2,down,1,1
291,TRUE,1.6579038,33,100,800,0,TRUE,2,down,0.25,31,0,0.5343844,0.5343844,0.5917551,TRUE,far-000,68,10,9,7.5,2,down,1,1
292,TRUE,2.6708595,33,100,800,0,TRUE,2,down,0.25,31,0,0.5333094,0.5333094,1.2923273,TRUE,far-000,69,11,10,8.25,2,down,1,1
294,TRUE,2.0087977,33,100,800,0,TRUE,2,down,0.25,31,0,0.5307655,0.5307655,0.5676681,TRUE,far-000,70,12,11,9,2,down,1,1
297,TRUE,1.7231955,33,100,800,0,TRUE,2,down,0.25,31,0,0.5277507,0.5277507,0.682611,TRUE,far-000,71,13,12,9.75,2,down,1,1
298,TRUE,1.5841037,33,100,800,0,TRUE,2,down,0.25,30,0,0.5181859,0.5181859,0.6735781,TRUE,far-000,72,1,1,0.75,2,down,1,0
300,TRUE,1.7735433,33,100,800,0,TRUE,2,down,0.25,30,0,0.5154539,0.5154539,0.6161617,TRUE,far-000,73,2,2,1.5,2,down,1,0
302,TRUE,3.9047432,33,100,800,0,TRUE,2,down,0.25,30,0,0.5165522,0.5165522,1.5112731,FALSE,far-000,74,3,2,2.25,2,down,1,0
305,TRUE,1.4839887,33,100,800,0,TRUE,2,down,0.25,30,0,0.5161071,0.5161071,0.7126884,TRUE,far-000,75,4,3,3,2,down,1,0
307,TRUE,1.7463403,33,100,800,0,TRUE,2,down,0.25,30,0,0.5183686,0.5183686,0.9809628,FALSE,far-000,76,5,3,3.75,2,down,1,0
309,TRUE,2.2010359,33,100,800,0,TRUE,2,down,0.25,30,0,0.5119189,0.5119189,0.9028223,TRUE,far-000,77,6,4,4.5,2,down,1,0
310,TRUE,1.6433226,33,100,800,0,TRUE,2,down,0.25,30,0,0.512959,0.512959,0.8457811,FALSE,far-000,78,7,4,5.25,2,down,1,0
313,TRUE,1.8998915,33,100,800,0,TRUE,2,down,0.25,30,0,0.5181781,0.5181781,0.9160329,FALSE,far-000,79,8,4,6,2,down,1,0
315,TRUE,1.619999,33,100,800,0,TRUE,2,down,0.25,30,0,0.5145717,0.5145717,1.7636254,FALSE,far-000,80,9,4,6.75,2,down,1,1
3,TRUE,1.9172227,33,100,800,5,TRUE,2,start,0.25,60,0.0945778,1.0137333,1.1083111,39.1732382,TRUE,far-080,1,1,1,0.75,0.5,start,16,0
9,TRUE,2.4616254,33,100,800,5,TRUE,2,start,0.25,60,0.0946903,1.0143992,1.1090895,62.7318046,TRUE,far-080,2,2,2,1.5,1,start,16,0
13,TRUE,3.9526708,33,100,800,5,TRUE,2,start,0.25,60,0.0914895,1.0026993,1.0941888,76.8420961,TRUE,far-080,3,3,3,2.25,1,start,16,0
17,TRUE,1.329549,33,100,800,5,TRUE,2,down,0.25,44,0.0953797,0.7508818,0.8462615,100.1679887,TRUE,far-080,4,1,1,0.75,0.5,down,16,0
21,TRUE,3.5455135,33,100,800,5,TRUE,2,down,0.25,44,0.088353,0.7585426,0.8468956,119.0932108,TRUE,far-080,5,2,2,1.5,1,down,16,0
29,TRUE,2.7137919,33,100,800,5,TRUE,2,down,0.25,44,0.0928647,0.7433395,0.8362042,147.7696106,TRUE,far-080,6,3,3,2.25,1,down,16,0
34,TRUE,10.3790491,33,100,800,5,TRUE,2,down,0.25,28,0.0933171,0.4922041,0.5855212,189.6165534,TRUE,far-080,7,1,1,0.75,0.5,down,16,0
36,TRUE,6.6950502,33,100,800,5,TRUE,2,down,0.25,28,0.0895036,0.4978179,0.5873215,206.2021296,TRUE,far-080,8,2,2,1.5,1,down,16,0
44,TRUE,1.4892336,33,100,800,5,TRUE,2,down,0.25,28,0.0883233,0.4915907,0.579914,242.6788497,FALSE,far-080,9,3,2,2.25,1,down,16,0
49,TRUE,3.7016688,33,100,800,5,TRUE,2,down,0.25,28,0.0893717,0.4958632,0.5852349,260.0013529,TRUE,far-080,10,4,3,3,0.5,down,16,0
55,TRUE,1.3472958,33,100,800,5,TRUE,2,down,0.25,28,0.0908029,0.4895403,0.5803432,278.2361499,TRUE,far-080,11,5,4,3.75,0.5,down,16,0
56,TRUE,1.7485329,33,100,800,5,TRUE,2,down,0.25,28,0.0896093,0.5052665,0.5948758,281.1896116,TRUE,far-080,12,6,5,4.5,0.5,down,16,0
64,TRUE,1.2755643,33,100,800,5,TRUE,2,down,0.25,28,0.0949301,0.5045454,0.5994755,311.5568705,FALSE,far-080,13,7,5,5.25,0.5,down,16,0
70,TRUE,1.6526001,33,100,800,5,TRUE,2,down,0.25,28,0.0924754,0.4927556,0.585231,342.2601024,FALSE,far-080,14,8,5,6,0.5,down,16,0
74,TRUE,1.4367183,33,100,800,5,TRUE,2,up,0.25,36,0.0877838,0.6225968,0.7103806,356.5845969,TRUE,far-080,15,1,1,0.75,0.5,up,4,0
80,TRUE,2.039083,33,100,800,5,TRUE,2,up,0.25,36,0.0928787,0.6176937,0.7105724,390.0232552,TRUE,far-080,16,2,2,1.5,1,up,4,0
83,TRUE,1.876154,33,100,800,5,TRUE,2,up,0.25,36,0.0878771,0.6228101,0.7106872,403.7015976,TRUE,far-080,17,3,3,2.25,1,up,4,0
87,TRUE,2.2240112,33,100,800,5,TRUE,2,up,0.25,36,0.0882528,0.6418067,0.7300595,419.060424,TRUE,far-080,18,4,4,3,1,up,4,0
92,TRUE,1.3070456,33,100,800,5,TRUE,2,up,0.25,36,0.0911273,0.6274294,0.7185567,439.429877,TRUE,far-080,19,5,5,3.75,1,up,4,0
96,TRUE,15.0261073,33,100,800,5,TRUE,2,down,0.25,32,0.0925061,0.567659,0.6601651,494.2404756,TRUE,far-080,20,1,1,0.75,1,down,2,0
104,TRUE,1.7274182,33,100,800,5,TRUE,2,down,0.25,32,0.088613,0.5569833,0.6455963,523.2428817,TRUE,far-080,21,2,2,1.5,2,down,2,0
106,TRUE,1.8846183,33,100,800,5,TRUE,2,down,0.25,32,0.0915257,0.55624,0.6477657,530.1081869,TRUE,far-080,22,3,3,2.25,2,down,2,0
113,TRUE,7.435387,33,100,800,5,TRUE,2,down,0.25,32,0.0891971,0.5537457,0.6429428,562.1796218,TRUE,far-080,23,4,4,3,2,down,2,0
119,TRUE,1.2585153,33,100,800,5,TRUE,2,down,0.25,32,0.0925371,0.5660285,0.6585656,581.0439506,TRUE,far-080,24,5,5,3.75,2,down,2,0
124,TRUE,1.7665154,33,100,800,5,TRUE,2,down,0.25,32,0.0936451,0.5603492,0.6539943,598.0794037,FALSE,far-080,25,6,5,4.5,2,down,2,0
126,TRUE,2.0491037,33,100,800,5,TRUE,2,down,0.25,32,0.0877418,0.5626401,0.6503819,604.3459635,TRUE,far-080,26,7,6,5.25,2,down,2,0
135,TRUE,3.239535,33,100,800,5,TRUE,2,down,0.25,32,0.0915926,0.5671462,0.6587388,638.1897649,TRUE,far-080,27,8,7,6,2,down,2,0
136,TRUE,2.3962073,33,100,800,5,TRUE,2,down,0.25,32,0.0926157,0.5543718,0.6469875,641.8698922,TRUE,far-080,28,9,8,6.75,2,down,2,1
145,TRUE,2.3144801,33,100,800,5,TRUE,2,down,0.25,32,0.0876361,0.5676315,0.6552676,677.7054878,TRUE,far-080,29,10,9,7.5,2,down,2,1
148,FALSE,0.8418735,33,100,800,5,TRUE,2,down,0.25,32,0.0879941,0.5588373,0.6468314,692.2051032,FALSE,far-080,30,11,9,8.25,2,down,2,1
153,TRUE,2.0581223,33,100,800,5,TRUE,2,down,0.25,32,0.0925895,0.6904581,0.7830476,709.1143307,TRUE,far-080,30,11,10,8.25,2,down,2,1
160,TRUE,4.054785,33,100,800,5,TRUE,2,down,0.25,32,0.0861294,0.5619475,0.6480769,736.4890944,TRUE,far-080,31,12,11,9,2,down,2,1
165,TRUE,5.4852223,33,100,800,5,TRUE,2,down,0.25,32,0.0879862,0.5699005,0.6578867,759.187682,TRUE,far-080,32,13,12,9.75,2,down,2,1
167,TRUE,2.3446037,33,100,800,5,TRUE,2,down,0.25,31,0.0876687,0.5522833,0.639952,766.4334376,TRUE,far-080,33,1,1,0.75,2,down,1,0
172,TRUE,3.4250296,33,100,800,5,TRUE,2,down,0.25,31,0.0923488,0.544284,0.6366328,783.3798366,TRUE,far-080,34,2,2,1.5,2,down,1,0
180,TRUE,2.2410699,33,100,800,5,TRUE,2,down,0.25,31,0.087425,0.5386329,0.6260579,810.1361087,TRUE,far-080,35,3,3,2.25,2,down,1,0
181,TRUE,1.4492284,33,100,800,5,TRUE,2,down,0.25,31,0.0893509,0.5457436,0.6350945,812.7604244,TRUE,far-080,36,4,4,3,2,down,1,0
186,TRUE,1.264364,33,100,800,5,TRUE,2,down,0.25,31,0.0904404,0.5484574,0.6388978,831.2151185,TRUE,far-080,37,5,5,3.75,2,down,1,0
193,TRUE,2.5975667,33,100,800,5,TRUE,2,down,0.25,31,0.088743,0.5383486,0.6270916,857.7741361,TRUE,far-080,38,6,6,4.5,2,down,1,0
196,TRUE,2.4801934,33,100,800,5,TRUE,2,down,0.25,31,0.0895134,0.6047944,0.6943078,874.0677994,TRUE,far-080,39,7,7,5.25,2,down,1,0
205,TRUE,3.562088,33,100,800,5,TRUE,2,down,0.25,31,0.0936341,0.5358253,0.6294594,904.4017677,TRUE,far-080,40,8,8,6,2,down,1,0
208,TRUE,1.9123318,33,100,800,5,TRUE,2,down,0.25,31,0.0906243,0.5445993,0.6352236,914.483018,TRUE,far-080,41,9,9,6.75,2,down,1,1
215,TRUE,1.5685111,33,100,800,5,TRUE,2,down,0.25,30,0.089787,0.5187174,0.6085044,943.6590157,TRUE,far-080,42,1,1,0.75,2,down,1,0
218,TRUE,2.1496532,33,100,800,5,TRUE,2,down,0.25,30,0.0918437,0.5278082,0.6196519,955.1516071,TRUE,far-080,43,2,2,1.5,3,down,1,0
222,TRUE,0.908016,33,100,800,5,TRUE,2,down,0.25,30,0.0892192,0.526687,0.6159062,969.982028,TRUE,far-080,44,3,3,2.25,3,down,1,0
227,TRUE,2.1340472,33,100,800,5,TRUE,2,down,0.25,30,0.0907269,0.5278172,0.6185441,990.3094815,TRUE,far-080,45,4,4,3,3,down,1,0
231,FALSE,2.3444061,33,100,800,5,TRUE,2,down,0.25,30,0.095631,0.5228099,0.6184409,1002.522595,TRUE,far-080,46,5,5,3.75,3,down,1,0
239,TRUE,1.5718814,33,100,800,5,TRUE,2,down,0.25,30,0.0902486,0.5299193,0.6201679,1033.542282,TRUE,far-080,46,5,5,3.75,3,down,1,0
245,TRUE,2.1684323,33,100,800,5,TRUE,2,down,0.25,30,0.0924566,0.5297739,0.6222305,1055.255617,TRUE,far-080,47,6,6,4.5,3,down,1,0
247,TRUE,2.2494543,33,100,800,5,TRUE,2,down,0.25,30,0.0888905,0.5320201,0.6209106,1061.553623,TRUE,far-080,48,7,7,5.25,3,down,1,0
250,TRUE,4.2014253,33,100,800,5,TRUE,2,down,0.25,30,0.0949666,0.5241629,0.6191295,1072.741179,TRUE,far-080,49,8,8,6,3,down,1,0
5,TRUE,1.5864114,33,100,800,10,TRUE,2,start,0.25,60,0.1667463,1.0123267,1.179073,45.4163489,TRUE,far-160,1,1,1,0.75,0.5,start,16,0
8,TRUE,2.4505577,33,100,800,10,TRUE,2,start,0.25,60,0.1692455,1.0059733,1.1752188,58.7777814,TRUE,far-160,2,2,2,1.5,1,start,16,0
14,TRUE,12.4855658,33,100,800,10,TRUE,2,start,0.25,60,0.1662637,1.01291,1.1791737,90.8265397,TRUE,far-160,3,3,3,2.25,1,start,16,0
16,TRUE,1.8584721,33,100,800,10,TRUE,2,down,0.25,44,0.172601,0.7470046,0.9196056,97.3708922,TRUE,far-160,4,1,1,0.75,0.5,down,16,0
22,TRUE,1.4597377,33,100,800,10,TRUE,2,down,0.25,44,0.1719907,0.7483369,0.9203276,121.9373147,TRUE,far-160,5,2,2,1.5,1,down,16,0
28,TRUE,1.9957275,33,100,800,10,TRUE,2,down,0.25,44,0.1695041,0.7467439,0.916248,143.653892,TRUE,far-160,6,3,3,2.25,1,down,16,0
35,TRUE,5.3911621,33,100,800,10,TRUE,2,down,0.25,28,0.1716506,0.4937363,0.6653869,197.7558924,TRUE,far-160,7,1,1,0.75,0.5,down,16,0
37,TRUE,3.6063786,33,100,800,10,TRUE,2,down,0.25,28,0.1742764,0.5009965,0.6752729,211.2290817,TRUE,far-160,8,2,2,1.5,1,down,16,0
42,TRUE,5.0454616,33,100,800,10,TRUE,2,down,0.25,28,0.1664051,0.497836,0.6642411,236.7175263,TRUE,far-160,9,3,3,2.25,1,down,16,0
46,TRUE,1.0872976,33,100,800,10,TRUE,2,down,0.25,12,0.1694667,0.2378671,0.4073338,248.6755557,FALSE,far-160,10,1,0,0.75,0.5,down,16,0
52,TRUE,1.5749053,33,100,800,10,TRUE,2,down,0.25,12,0.1742343,0.2386538,0.4128881,267.9885559,FALSE,far-160,11,2,0,1.5,1,down,16,0
59,TRUE,5.092793,33,100,800,10,TRUE,2,up,0.25,28,0.1694949,0.4929558,0.6624507,292.5639344,TRUE,far-160,12,1,1,0.75,1,up,8,0
62,TRUE,2.3608916,33,100,800,10,TRUE,2,up,0.25,28,0.1717916,0.5345601,0.7063517,304.0377285,TRUE,far-160,13,2,2,1.5,1,up,8,0
68,TRUE,7.8331267,33,100,800,10,TRUE,2,up,0.25,28,0.1691841,0.4956577,0.6648418,334.667402,TRUE,far-160,14,3,3,2.25,1,up,8,0
75,TRUE,2.8924522,33,100,800,10,TRUE,2,up,0.25,28,0.1685614,0.4945928,0.6631542,360.6291536,TRUE,far-160,15,4,4,3,1,up,8,0
78,TRUE,3.2692784,33,100,800,10,TRUE,2,up,0.25,28,0.1687469,0.6249121,0.793659,384.0439857,TRUE,far-160,16,5,5,3.75,1,up,8,0
82,TRUE,1.4234184,33,100,800,10,TRUE,2,down,0.25,20,0.1709011,0.3738167,0.5447178,400.2989134,TRUE,far-160,17,1,1,0.75,1,down,4,0
88,TRUE,4.0934876,33,100,800,10,TRUE,2,down,0.25,20,0.2248128,0.3628669,0.5876797,424.420854,TRUE,far-160,18,2,2,1.5,1,down,4,0
94,TRUE,3.5678836,33,100,800,10,TRUE,2,down,0.25,20,0.1733762,0.3648192,0.5381954,464.7833299,TRUE,far-160,19,3,3,2.25,1,down,4,0
97,TRUE,2.2936147,33,100,800,10,TRUE,2,down,0.25,20,0.1722339,0.3692905,0.5415244,497.7351437,TRUE,far-160,20,4,4,3,1,down,4,0
102,FALSE,1.1266496,33,100,800,10,TRUE,2,down,0.25,20,0.1693128,0.3688919,0.5382047,514.9359778,TRUE,far-160,21,5,5,3.75,1,down,4,0
107,TRUE,1.5058888,33,100,800,10,TRUE,2,down,0.25,20,0.1703849,0.3608643,0.5312492,532.7217069,TRUE,far-160,21,5,5,3.75,1,down,4,0
115,TRUE,1.4004841,33,100,800,10,TRUE,2,down,0.25,16,0.1709734,0.2984912,0.4694646,568.2182475,TRUE,far-160,22,1,1,0.75,1,down,4,0
116,TRUE,1.3764246,33,100,800,10,TRUE,2,down,0.25,16,0.1682515,0.2997176,0.4679691,570.9857082,TRUE,far-160,23,2,2,1.5,1,down,4,0
121,TRUE,2.3718794,33,100,800,10,TRUE,2,down,0.25,16,0.1690262,0.3025439,0.4715701,587.7752845,FALSE,far-160,24,3,2,2.25,1,down,4,0
127,TRUE,1.3864209,33,100,800,10,TRUE,2,down,0.25,16,0.1745384,0.307473,0.4820114,607.2837456,TRUE,far-160,25,4,3,3,1,down,4,0
132,TRUE,1.5058031,33,100,800,10,TRUE,2,down,0.25,16,0.1724514,0.3158745,0.4883259,626.9985164,FALSE,far-160,26,5,3,3.75,1,down,4,0
139,TRUE,6.2150618,33,100,800,10,TRUE,2,down,0.25,16,0.287953,0.3084328,0.5963858,659.4129882,TRUE,far-160,27,6,4,4.5,1,down,4,0
141,TRUE,1.6494284,33,100,800,10,TRUE,2,down,0.25,16,0.1687762,0.3097296,0.4785058,665.1839126,TRUE,far-160,28,7,5,5.25,1,down,4,0
146,TRUE,1.909989,33,100,800,10,TRUE,2,down,0.25,16,0.1724974,0.3066714,0.4791688,680.6540699,FALSE,far-160,29,8,5,6,1,down,4,0
154,TRUE,3.2578976,33,100,800,10,TRUE,2,down,0.25,16,0.1690591,0.3134458,0.4825049,713.4089449,TRUE,far-160,30,9,6,6.75,1,down,4,1
156,TRUE,1.5721379,33,100,800,10,TRUE,2,down,0.25,16,0.171537,0.3102735,0.4818105,718.809618,FALSE,far-160,31,10,6,7.5,1,down,4,1
163,TRUE,3.8493773,33,100,800,10,TRUE,2,up,0.25,18,0.1692842,0.3324715,0.5017557,748.162577,TRUE,far-160,32,1,1,0.75,1,up,1,0
168,TRUE,1.2942448,33,100,800,10,TRUE,2,up,0.25,18,0.1692244,0.3822129,0.5514373,769.1660393,TRUE,far-160,33,2,2,1.5,2,up,1,0
174,TRUE,2.1859742,33,100,800,10,TRUE,2,up,0.25,18,0.1741643,0.3322992,0.5064635,789.686304,TRUE,far-160,34,3,3,2.25,2,up,1,0
177,TRUE,1.5409577,33,100,800,10,TRUE,2,up,0.25,18,0.1674396,0.3436958,0.5111354,798.7750237,TRUE,far-160,35,4,4,3,2,up,1,0
185,TRUE,4.0358638,33,100,800,10,TRUE,2,up,0.25,18,0.1681493,0.3469289,0.5150782,828.0099306,TRUE,far-160,36,5,5,3.75,2,up,1,0
189,TRUE,2.3522982,33,100,800,10,TRUE,2,up,0.25,18,0.1673505,0.3292506,0.4966011,843.8146051,TRUE,far-160,37,6,6,4.5,2,up,1,0
191,TRUE,1.4173153,33,100,800,10,TRUE,2,up,0.25,18,0.1716352,0.3405393,0.5121745,850.0641183,TRUE,far-160,38,7,7,5.25,2,up,1,0
200,TRUE,1.4921609,33,100,800,10,TRUE,2,up,0.25,18,0.1709082,0.3338716,0.5047798,886.197463,FALSE,far-160,39,8,7,6,2,up,1,0
204,TRUE,1.8822238,33,100,800,10,TRUE,2,up,0.25,18,0.1723597,0.3420255,0.5143852,899.5344981,TRUE,far-160,40,9,8,6.75,2,up,1,1
207,TRUE,2.3991956,33,100,800,10,TRUE,2,up,0.25,18,0.1729845,0.3458314,0.5188159,911.1222037,TRUE,far-160,41,10,9,7.5,2,up,1,1
214,TRUE,2.0645146,33,100,800,10,TRUE,2,up,0.25,18,0.1695671,0.3358722,0.5054393,940.1401492,TRUE,far-160,42,11,10,8.25,2,up,1,1
216,TRUE,1.8288778,33,100,800,10,TRUE,2,up,0.25,18,0.1729713,0.3395887,0.51256,946.6516723,FALSE,far-160,43,12,10,9,2,up,1,1
224,TRUE,1.3700757,33,100,800,10,TRUE,2,up,0.25,18,0.1684336,0.3419797,0.5104133,975.8308985,FALSE,far-160,44,13,10,9.75,2,up,1,1
226,FALSE,4.4282433,33,100,800,10,TRUE,2,up,0.25,18,0.1720538,0.3368629,0.5089167,986.6928333,TRUE,far-160,45,14,11,10.5,2,up,1,1
234,TRUE,1.1645235,33,100,800,10,TRUE,2,up,0.25,18,0.1689555,0.3378492,0.5068047,1010.086241,TRUE,far-160,45,14,11,10.5,2,up,1,1
240,TRUE,1.4703154,33,100,800,10,TRUE,2,up,0.25,18,0.1719266,0.3314695,0.5033961,1036.203415,TRUE,far-160,46,15,12,11.25,2,up,1,1
241,TRUE,1.5548469,33,100,800,10,TRUE,2,up,0.25,18,0.1718073,0.4649501,0.6367574,1039.192827,TRUE,far-160,47,16,13,12,2,up,1,1
2,TRUE,5.7075222,33,800,100,0,TRUE,3,start,0.25,60,0,0.9846819,0.9846819,35.638602,TRUE,far-rnd2,1,1,1,0.75,0.5,start,16,0
6,TRUE,4.9100214,33,50,100,0,TRUE,1,start,0.25,60,0,0.9866048,0.9866048,0.3669616,TRUE,far-rnd2,2,2,2,1.5,1,start,16,0
12,TRUE,1.5281509,33,800,100,0,TRUE,3,start,0.25,60,0,0.9869548,0.9869548,71.2768253,TRUE,far-rnd2,3,3,3,2.25,1,start,16,0
18,TRUE,2.0858765,33,33,100,0,FALSE,0,down,0.25,44,0,0.7192095,0.7192095,0.5020182,TRUE,far-rnd2,4,1,1,0.75,0.5,down,16,0
25,TRUE,4.8603706,33,33,100,0,FALSE,0,down,0.25,44,0,0.7173961,0.7173961,0.435459,TRUE,far-rnd2,5,2,2,1.5,1,down,16,0
27,TRUE,2.9704047,33,33,100,0,FALSE,0,down,0.25,44,0,0.7197832,0.7197832,0.3264479,TRUE,far-rnd2,6,3,3,2.25,1,down,16,0
31,TRUE,2.9235839,33,50,100,0,TRUE,1,down,0.25,28,0,0.4796884,0.4796884,1.1306898,FALSE,far-rnd2,7,1,0,0.75,0.5,down,16,0
38,TRUE,6.5375494,33,50,100,0,TRUE,1,down,0.25,28,0,0.4802424,0.4802424,0.7049345,TRUE,far-rnd2,8,2,1,1.5,1,down,16,0
41,TRUE,2.6745871,33,800,100,0,TRUE,3,down,0.25,28,0,0.4752731,0.4752731,229.6584692,FALSE,far-rnd2,9,3,1,2.25,1,down,16,0
50,TRUE,1.6723691,33,33,100,0,FALSE,0,up,0.25,44,0,0.7159573,0.7159573,0.3121227,TRUE,far-rnd2,10,1,1,0.75,0.5,up,8,0
54,TRUE,1.4491027,33,33,100,0,FALSE,0,up,0.25,44,0,0.7178202,0.7178202,0.385383,TRUE,far-rnd2,11,2,2,1.5,1,up,8,0
60,TRUE,3.2856001,33,33,100,0,FALSE,0,up,0.25,44,0,0.7150926,0.7150926,0.3699983,TRUE,far-rnd2,12,3,3,2.25,1,up,8,0
61,TRUE,2.2978977,33,33,100,0,FALSE,0,up,0.25,44,0,0.7191629,0.7191629,0.3220563,TRUE,far-rnd2,13,4,4,3,1,up,8,0
69,TRUE,3.4161209,33,800,100,0,TRUE,3,up,0.25,44,0,0.7287431,0.7287431,339.4326579,TRUE,far-rnd2,14,5,5,3.75,1,up,8,0
73,TRUE,4.4756736,33,50,100,0,TRUE,1,down,0.25,36,0,0.6698323,0.6698323,0.3907258,TRUE,far-rnd2,15,1,1,0.75,1,down,4,0
77,TRUE,9.9121311,33,800,100,0,TRUE,3,down,0.25,36,0,0.6419702,0.6419702,379.0457921,TRUE,far-rnd2,16,2,2,1.5,1,down,4,0
84,TRUE,2.7336435,33,50,100,0,TRUE,1,down,0.25,36,0,0.5997001,0.5997001,0.4931704,TRUE,far-rnd2,17,3,3,2.25,1,down,4,0
90,TRUE,1.5179926,33,800,100,0,TRUE,3,down,0.25,36,0,0.6081697,0.6081697,432.4769745,FALSE,far-rnd2,18,4,3,3,1,down,4,0
91,TRUE,1.8807229,33,800,100,0,TRUE,3,down,0.25,36,0,0.6032583,0.6032583,436.5191564,FALSE,far-rnd2,19,5,3,3.75,1,down,4,0
99,TRUE,1.9739293,33,33,100,0,FALSE,0,down,0.25,36,0,0.5891931,0.5891931,0.4045997,TRUE,far-rnd2,20,6,4,4.5,1,down,4,0
101,FALSE,2.1889402,33,33,100,0,FALSE,0,down,0.25,36,0,0.5918305,0.5918305,0.4346102,TRUE,far-rnd2,21,7,5,5.25,1,down,4,0
110,TRUE,1.5225161,33,33,100,0,FALSE,0,down,0.25,36,0,0.5950707,0.5950707,0.4650658,TRUE,far-rnd2,21,7,5,5.25,1,down,4,0
114,TRUE,2.2931058,33,50,100,0,TRUE,1,down,0.25,36,0,0.6082059,0.6082059,0.4584577,TRUE,far-rnd2,22,8,6,6,1,down,4,0
117,TRUE,1.6939407,33,800,100,0,TRUE,3,down,0.25,36,0,0.6273836,0.6273836,574.0866205,TRUE,far-rnd2,23,9,7,6.75,1,down,4,1
122,TRUE,1.6470624,33,50,100,0,TRUE,1,down,0.25,36,0,0.6005715,0.6005715,0.3130267,TRUE,far-rnd2,24,10,8,7.5,1,down,4,1
129,TRUE,1.9259614,33,50,100,0,TRUE,1,down,0.25,36,0,0.6023866,0.6023866,0.6305377,TRUE,far-rnd2,25,11,9,8.25,1,down,4,1
134,TRUE,1.5075179,33,800,100,0,TRUE,3,down,0.25,36,0,0.6079301,0.6079301,633.2054775,TRUE,far-rnd2,26,12,10,9,1,down,4,1
137,TRUE,4.9938926,33,33,100,0,FALSE,0,down,0.25,36,0,0.5911793,0.5911793,0.4499213,TRUE,far-rnd2,27,13,11,9.75,1,down,4,1
142,TRUE,1.6033351,33,33,100,0,FALSE,0,down,0.25,34,0,0.5563889,0.5563889,0.3804554,TRUE,far-rnd2,28,1,1,0.75,1,down,2,0
147,TRUE,7.3263774,33,33,100,0,FALSE,0,down,0.25,34,0,0.5589729,0.5589729,0.4611945,TRUE,far-rnd2,29,2,2,1.5,2,down,2,0
155,TRUE,1.6024237,33,33,100,0,FALSE,0,down,0.25,34,0,0.5560171,0.5560171,0.4236774,TRUE,far-rnd2,30,3,3,2.25,2,down,2,0
158,TRUE,2.6974772,33,50,100,0,TRUE,1,down,0.25,34,0,0.5701282,0.5701282,0.5142705,TRUE,far-rnd2,31,4,4,3,2,down,2,0
164,TRUE,2.1074795,33,800,100,0,TRUE,3,down,0.25,34,0,0.5714551,0.5714551,751.9717275,FALSE,far-rnd2,32,5,4,3.75,2,down,2,0
166,TRUE,2.7141434,33,50,100,0,TRUE,1,down,0.25,34,0,0.5736404,0.5736404,0.5146877,TRUE,far-rnd2,33,6,5,4.5,2,down,2,0
171,TRUE,1.5364179,33,800,100,0,TRUE,3,down,0.25,34,0,0.568946,0.568946,778.267927,TRUE,far-rnd2,34,7,6,5.25,2,down,2,0
176,TRUE,1.8905114,33,33,100,0,FALSE,0,down,0.25,34,0,0.5593287,0.5593287,0.482205,TRUE,far-rnd2,35,8,7,6,2,down,2,0
183,TRUE,2.7998047,33,50,100,0,TRUE,1,down,0.25,34,0,0.5777585,0.5777585,0.4522588,TRUE,far-rnd2,36,9,8,6.75,2,down,2,1
188,TRUE,2.2358864,33,800,100,0,TRUE,3,down,0.25,34,0,0.5715536,0.5715536,840.2631113,TRUE,far-rnd2,37,10,9,7.5,2,down,2,1
195,TRUE,4.049591,33,33,100,0,FALSE,0,down,0.25,34,0,0.5604204,0.5604204,0.3351695,TRUE,far-rnd2,38,11,10,8.25,2,down,2,1
198,TRUE,1.490406,33,33,100,0,FALSE,0,down,0.25,34,0,0.5576063,0.5576063,0.718983,TRUE,far-rnd2,39,12,11,9,2,down,2,1
203,TRUE,1.6173238,33,33,100,0,FALSE,0,down,0.25,34,0,0.5576259,0.5576259,0.4502755,TRUE,far-rnd2,40,13,12,9.75,2,down,2,1
206,TRUE,1.9555927,33,33,100,0,FALSE,0,down,0.25,33,0,0.5418734,0.5418734,0.5189668,TRUE,far-rnd2,41,1,1,0.75,2,down,1,0
211,TRUE,1.6382026,33,33,100,0,FALSE,0,down,0.25,33,0,0.5439065,0.5439065,0.496371,TRUE,far-rnd2,42,2,2,1.5,2,down,1,0
219,TRUE,2.3098318,33,800,100,0,TRUE,3,down,0.25,33,0,0.557175,0.557175,958.5822011,TRUE,far-rnd2,43,3,3,2.25,2,down,1,0
221,TRUE,3.888206,33,33,100,0,FALSE,0,down,0.25,33,0,0.5435248,0.5435248,0.4070702,TRUE,far-rnd2,44,4,4,3,2,down,1,0
228,TRUE,1.7837586,33,50,100,0,TRUE,1,down,0.25,33,0,0.5552369,0.5552369,0.4906879,TRUE,far-rnd2,45,5,5,3.75,2,down,1,0
232,TRUE,1.4670105,33,33,100,0,FALSE,0,down,0.25,33,0,0.5390652,0.5390652,0.3917018,TRUE,far-rnd2,46,6,6,4.5,2,down,1,0
238,TRUE,5.63438,33,50,100,0,TRUE,1,down,0.25,33,0,0.5591813,0.5591813,0.5955267,TRUE,far-rnd2,47,7,7,5.25,2,down,1,0
244,TRUE,3.5927085,33,50,100,0,TRUE,1,down,0.25,33,0,0.5557488,0.5557488,0.4832548,TRUE,far-rnd2,48,8,8,6,2,down,1,0
246,TRUE,1.5698325,33,50,100,0,TRUE,1,down,0.25,33,0,0.5581578,0.5581578,0.5830996,TRUE,far-rnd2,49,9,9,6.75,2,down,1,1
252,TRUE,6.4439515,33,33,100,0,FALSE,0,down,0.25,32,0,0.5266891,0.5266891,0.5863345,TRUE,far-rnd2,50,1,1,0.75,2,down,1,0
254,TRUE,1.7929055,33,50,100,0,TRUE,1,down,0.25,32,0,0.5423488,0.5423488,0.5301453,TRUE,far-rnd2,51,2,2,1.5,2,down,1,0
256,TRUE,2.1958796,33,50,100,0,TRUE,1,down,0.25,32,0,0.543209,0.543209,0.4282868,TRUE,far-rnd2,52,3,3,2.25,2,down,1,0
258,TRUE,2.5921232,33,33,100,0,FALSE,0,down,0.25,32,0,0.5258191,0.5258191,0.5233977,TRUE,far-rnd2,53,4,4,3,2,down,1,0
261,TRUE,4.2492471,33,50,100,0,TRUE,1,down,0.25,32,0,0.539357,0.539357,0.4776244,TRUE,far-rnd2,54,5,5,3.75,2,down,1,0
262,TRUE,2.7704044,33,800,100,0,TRUE,3,down,0.25,32,0,0.5389787,0.5389787,1122.229135,TRUE,far-rnd2,55,6,6,4.5,2,down,1,0
265,FALSE,1.849668,33,33,100,0,FALSE,0,down,0.25,32,0,0.526769,0.526769,0.4040593,TRUE,far-rnd2,56,7,7,5.25,2,down,1,0
266,TRUE,33.5642338,33,50,100,0,TRUE,1,down,0.25,32,0,0.541987,0.541987,0.4597082,TRUE,far-rnd2,56,7,7,5.25,2,down,1,0
268,TRUE,1.5472246,33,800,100,0,TRUE,3,down,0.25,32,0,0.5343415,0.5343415,1175.650916,TRUE,far-rnd2,57,8,8,6,2,down,1,0
270,FALSE,1.849118,33,50,100,0,TRUE,1,down,0.25,32,0,0.5393441,0.5393441,0.4150035,TRUE,far-rnd2,58,9,9,6.75,2,down,1,1
272,TRUE,3.3444959,33,800,100,0,TRUE,3,down,0.25,32,0,0.5386392,0.5386392,1189.283022,TRUE,far-rnd2,58,9,9,6.75,2,down,1,1
275,TRUE,2.4000071,33,33,100,0,FALSE,0,down,0.25,31,0,0.5083489,0.5083489,0.3730461,TRUE,far-rnd2,59,1,1,0.75,2,down,1,0
277,TRUE,2.6058308,33,800,100,0,TRUE,3,down,0.25,31,0,0.5192171,0.5192171,1206.523595,TRUE,far-rnd2,60,2,2,1.5,2,down,1,0
278,TRUE,2.578786,33,50,100,0,TRUE,1,down,0.25,31,0,0.5247157,0.5247157,0.6589298,TRUE,far-rnd2,61,3,3,2.25,2,down,1,0
281,TRUE,2.0035111,33,50,100,0,TRUE,1,down,0.25,31,0,0.52502,0.52502,0.5174807,TRUE,far-rnd2,62,4,4,3,2,down,1,0
282,TRUE,1.1455186,33,800,100,0,TRUE,3,down,0.25,31,0,0.523662,0.523662,1222.643375,TRUE,far-rnd2,63,5,5,3.75,2,down,1,0
284,TRUE,2.4798084,33,33,100,0,FALSE,0,down,0.25,31,0,0.5081577,0.5081577,0.3062474,TRUE,far-rnd2,64,6,6,4.5,2,down,1,0
287,TRUE,2.1866221,33,33,100,0,FALSE,0,down,0.25,31,0,0.5085836,0.5085836,0.3703131,TRUE,far-rnd2,65,7,7,5.25,2,down,1,0
289,TRUE,1.5549829,33,800,100,0,TRUE,3,down,0.25,31,0,0.5232949,0.5232949,1248.500031,FALSE,far-rnd2,66,8,7,6,2,down,1,0
290,TRUE,2.8823548,33,800,100,0,TRUE,3,down,0.25,31,0,0.524806,0.524806,1253.886155,TRUE,far-rnd2,67,9,8,6.75,2,down,1,1
293,TRUE,1.8449671,33,33,100,0,FALSE,0,down,0.25,31,0,0.5129334,0.5129334,0.4660284,TRUE,far-rnd2,68,10,9,7.5,2,down,1,1
295,TRUE,1.4788937,33,800,100,0,TRUE,3,down,0.25,31,0,0.5221039,0.5221039,1270.220316,TRUE,far-rnd2,69,11,10,8.25,2,down,1,1
296,TRUE,1.4864762,33,33,100,0,FALSE,0,down,0.25,31,0,0.5112389,0.5112389,0.3178382,TRUE,far-rnd2,70,12,11,9,2,down,1,1
299,TRUE,4.0718334,33,50,100,0,TRUE,1,down,0.25,31,0,0.5236445,0.5236445,0.4043543,TRUE,far-rnd2,71,13,12,9.75,2,down,1,1
301,TRUE,3.266121,33,33,100,0,FALSE,0,down,0.25,30,0,0.4941857,0.4941857,0.3788049,TRUE,far-rnd2,72,1,1,0.75,2,down,1,0
303,TRUE,3.0882971,33,33,100,0,FALSE,0,down,0.25,30,0,0.4951659,0.4951659,0.374747,TRUE,far-rnd2,73,2,2,1.5,2,down,1,0
304,TRUE,0.9583735,33,800,100,0,TRUE,3,down,0.25,30,0,0.5093339,0.5093339,1302.787341,FALSE,far-rnd2,74,3,2,2.25,2,down,1,0
306,TRUE,4.6835179,33,33,100,0,FALSE,0,down,0.25,30,0,0.4945888,0.4945888,0.3211551,TRUE,far-rnd2,75,4,3,3,2,down,1,0
308,TRUE,1.872261,33,33,100,0,FALSE,0,down,0.25,30,0,0.4930914,0.4930914,0.3697101,TRUE,far-rnd2,76,5,4,3.75,2,down,1,0
311,TRUE,1.9836756,33,50,100,0,TRUE,1,down,0.25,30,0,0.5137983,0.5137983,0.5312058,TRUE,far-rnd2,77,6,5,4.5,2,down,1,0
312,TRUE,1.5311916,33,800,100,0,TRUE,3,down,0.25,30,0,0.5105992,0.5105992,1330.460098,FALSE,far-rnd2,78,7,5,5.25,2,down,1,0
314,TRUE,1.9299733,33,33,100,0,FALSE,0,down,0.25,30,0,0.4960432,0.4960432,0.3424937,TRUE,far-rnd2,79,8,6,6,2,down,1,0
1,TRUE,22.9022023,33,33,100,0,FALSE,0,start,0.25,60,0,0.9837994,0.9837994,0.4609981,TRUE,far-rndm,1,1,1,0.75,0.5,start,16,0
7,TRUE,1.5099495,33,33,100,0,FALSE,0,start,0.25,60,0,0.9715694,0.9715694,0.5308344,TRUE,far-rndm,2,2,2,1.5,1,start,16,0
11,TRUE,1.5867529,33,800,100,0,TRUE,3,start,0.25,60,0,0.9837784,0.9837784,68.3193614,TRUE,far-rndm,3,3,3,2.25,1,start,16,0
19,TRUE,2.3931927,33,800,100,0,TRUE,3,down,0.25,44,0,0.7327739,0.7327739,107.0702607,TRUE,far-rndm,4,1,1,0.75,0.5,down,16,0
24,TRUE,1.6549382,33,800,100,0,TRUE,3,down,0.25,44,0,0.7327457,0.7327457,127.2459501,TRUE,far-rndm,5,2,2,1.5,1,down,16,0
30,TRUE,3.0214124,33,50,100,0,TRUE,1,down,0.25,44,0,0.733661,0.733661,0.3970943,TRUE,far-rndm,6,3,3,2.25,1,down,16,0
33,TRUE,11.8881875,33,800,100,0,TRUE,3,down,0.25,28,0,0.4798135,0.4798135,177.8834956,TRUE,far-rndm,7,1,1,0.75,0.5,down,16,0
40,TRUE,2.4742329,33,800,100,0,TRUE,3,down,0.25,28,0,0.4744734,0.4744734,225.4791888,FALSE,far-rndm,8,2,1,1.5,1,down,16,0
45,TRUE,1.4371443,33,33,100,0,FALSE,0,down,0.25,28,0,0.4598372,0.4598372,1.2414365,FALSE,far-rndm,9,3,1,2.25,1,down,16,0
48,TRUE,1.8396503,33,800,100,0,TRUE,3,up,0.25,44,0,0.7356076,0.7356076,255.0871123,TRUE,far-rndm,10,1,1,0.75,0.5,up,8,0
53,TRUE,1.3867738,33,800,100,0,TRUE,3,up,0.25,44,0,0.72777,0.72777,271.4832526,TRUE,far-rndm,11,2,2,1.5,1,up,8,0
57,TRUE,1.1029471,33,33,100,0,FALSE,0,up,0.25,44,0,0.7184528,0.7184528,0.4186403,TRUE,far-rndm,12,3,3,2.25,1,up,8,0
63,TRUE,4.0074528,33,33,100,0,FALSE,0,up,0.25,44,0,0.7188694,0.7188694,0.3095638,TRUE,far-rndm,13,4,4,3,1,up,8,0
67,TRUE,5.5796809,33,800,100,0,TRUE,3,up,0.25,44,0,0.7271633,0.7271633,325.3587286,FALSE,far-rndm,14,5,4,3.75,1,up,8,0
71,TRUE,2.0443122,33,33,100,0,FALSE,0,up,0.25,44,0,0.7160288,0.7160288,0.4243133,TRUE,far-rndm,15,6,5,4.5,1,up,8,0
79,TRUE,1.6982779,33,33,100,0,FALSE,0,up,0.25,44,0,0.7188772,0.7188772,0.3494126,TRUE,far-rndm,16,7,6,5.25,1,up,8,0
81,TRUE,3.6815466,33,800,100,0,TRUE,3,up,0.25,44,0,0.7324108,0.7324108,395.1471282,FALSE,far-rndm,17,8,6,6,1,up,8,0
89,TRUE,3.7197284,33,50,100,0,TRUE,1,up,0.25,44,0,0.7355923,0.7355923,0.4047732,TRUE,far-rndm,18,9,7,6.75,1,up,8,1
95,TRUE,10.7712906,33,800,100,0,TRUE,3,up,0.25,44,0,0.7259928,0.7259928,476.9294956,FALSE,far-rndm,19,10,7,7.5,1,up,8,1
98,TRUE,4.0625267,33,800,100,0,TRUE,3,up,0.25,44,0,0.7297638,0.7297638,503.4293357,TRUE,far-rndm,20,11,8,8.25,1,up,8,1
105,TRUE,2.0376365,33,800,100,0,TRUE,3,up,0.25,44,0,0.7332269,0.7332269,526.6482057,TRUE,far-rndm,21,12,9,9,1,up,8,1
109,TRUE,1.3850629,33,800,100,0,TRUE,3,up,0.25,44,0,0.7296025,0.7296025,538.2248155,TRUE,far-rndm,22,13,10,9.75,1,up,8,1
111,TRUE,3.5877521,33,800,100,0,TRUE,3,up,0.25,44,0,0.7307683,0.7307683,546.4031053,FALSE,far-rndm,23,14,10,10.5,1,up,8,1
120,TRUE,1.7989003,33,800,100,0,TRUE,3,up,0.25,44,0,0.7261222,0.7261222,584.2330432,TRUE,far-rndm,24,15,11,11.25,1,up,8,1
123,TRUE,1.7027521,33,800,100,0,TRUE,3,up,0.25,44,0,0.7278948,0.7278948,594.1461134,FALSE,far-rndm,25,16,11,12,1,up,8,1
128,TRUE,4.3717552,33,33,100,0,FALSE,0,up,0.25,44,0,0.7166196,0.7166196,0.4743329,TRUE,far-rndm,26,17,12,12.75,1,up,8,2
131,TRUE,2.0633224,33,800,100,0,TRUE,3,up,0.25,44,0,0.7291472,0.7291472,622.8776406,FALSE,far-rndm,27,18,12,13.5,1,up,8,2
140,TRUE,1.234577,33,800,100,0,TRUE,3,up,0.25,46,0,0.7618346,0.7618346,662.5208422,TRUE,far-rndm,28,1,1,0.75,1,up,2,0
143,TRUE,2.0331224,33,800,100,0,TRUE,3,up,0.25,46,0,0.762483,0.762483,671.2947271,TRUE,far-rndm,29,2,2,1.5,2,up,2,0
150,TRUE,1.4352576,33,800,100,0,TRUE,3,up,0.25,46,0,0.7648954,0.7648954,699.7046917,TRUE,far-rndm,30,3,3,2.25,2,up,2,0
152,TRUE,1.7336695,33,50,100,0,TRUE,1,up,0.25,46,0,0.7689751,0.7689751,0.45865,TRUE,far-rndm,31,4,4,3,2,up,2,0
157,TRUE,2.4331489,33,800,100,0,TRUE,3,up,0.25,46,0,0.7632192,0.7632192,723.471729,TRUE,far-rndm,32,5,5,3.75,2,up,2,0
162,TRUE,2.2929842,33,50,100,0,TRUE,1,up,0.25,46,0,0.7588732,0.7588732,0.3597015,TRUE,far-rndm,33,6,6,4.5,2,up,2,0
170,TRUE,1.5099312,33,50,100,0,TRUE,1,up,0.25,46,0,0.7669386,0.7669386,0.39016,TRUE,far-rndm,34,7,7,5.25,2,up,2,0
175,TRUE,1.8349584,33,800,100,0,TRUE,3,up,0.25,46,0,0.7603443,0.7603443,793.0226526,TRUE,far-rndm,35,8,8,6,2,up,2,0
178,FALSE,1.7577711,33,50,100,0,TRUE,1,up,0.25,46,0,0.7637531,0.7637531,0.354585,TRUE,far-rndm,36,9,9,6.75,2,up,2,1
184,TRUE,1.4333602,33,800,100,0,TRUE,3,up,0.25,46,0,0.7637541,0.7637541,822.3836269,FALSE,far-rndm,36,9,8,6.75,2,up,2,1
190,TRUE,2.2741152,33,33,100,0,FALSE,0,up,0.25,46,0,0.7512564,0.7512564,0.3741136,TRUE,far-rndm,37,10,9,7.5,2,up,2,1
194,TRUE,5.8923083,33,800,100,0,TRUE,3,up,0.25,46,0,0.7604994,0.7604994,865.1410953,TRUE,far-rndm,38,11,10,8.25,2,up,2,1
197,TRUE,1.5820194,33,33,100,0,FALSE,0,up,0.25,46,0,0.7494627,0.7494627,0.3969471,TRUE,far-rndm,39,12,11,9,2,up,2,1
202,TRUE,2.7077639,33,50,100,0,TRUE,1,up,0.25,46,0,0.8265244,0.8265244,0.3024237,TRUE,far-rndm,40,13,12,9.75,2,up,2,1
209,FALSE,3.8929032,33,800,100,0,TRUE,3,down,0.25,45,0,0.7425966,0.7425966,919.8941169,FALSE,far-rndm,41,1,0,0.75,2,down,1,0
212,TRUE,2.0392317,33,800,100,0,TRUE,3,down,0.25,45,0,0.7399608,0.7399608,929.3808797,TRUE,far-rndm,41,1,1,0.75,2,down,1,0
220,TRUE,2.4356899,33,50,100,0,TRUE,1,down,0.25,45,0,0.7508421,0.7508421,0.5099073,TRUE,far-rndm,42,2,2,1.5,3,down,1,0
223,FALSE,2.0890764,33,33,100,0,FALSE,0,down,0.25,45,0,0.733521,0.733521,0.3992224,TRUE,far-rndm,43,3,3,2.25,3,down,1,0
229,TRUE,1.665276,33,50,100,0,TRUE,1,down,0.25,45,0,0.7480221,0.7480221,0.241377,TRUE,far-rndm,43,3,3,2.25,3,down,1,0
233,TRUE,1.6757091,33,50,100,0,TRUE,1,down,0.25,45,0,0.751877,0.751877,0.4504042,TRUE,far-rndm,44,4,4,3,3,down,1,0
237,TRUE,5.6624518,33,50,100,0,TRUE,1,down,0.25,45,0,0.8305596,0.8305596,0.3203904,TRUE,far-rndm,45,5,5,3.75,3,down,1,0
243,TRUE,2.3734135,33,800,100,0,TRUE,3,down,0.25,45,0,0.7435868,0.7435868,1046.78041,TRUE,far-rndm,46,6,6,4.5,3,down,1,0
249,TRUE,1.4674858,33,800,100,0,TRUE,3,down,0.25,45,0,0.7516832,0.7516832,1067.456652,TRUE,far-rndm,47,7,7,5.25,3,down,1,0
253,TRUE,2.2024247,33,800,100,0,TRUE,3,down,0.25,45,0,0.7515155,0.7515155,1087.184078,TRUE,far-rndm,48,8,8,6,3,down,1,0
