trial,primeCorrect,primeTime,primeDepth,stimDepth,extraDepth,driveFrames,nearToFar,diopters,direction,size,intensity,extraLatency,mainLatency,totalLatency,responseTime,correct,caseLabel,caseTrial,trialsAtStep,stepCorrect,expected,w,direction,stepsize,stepChange
1,True,72.96755430000485,800.0,800.0,50.0,0,False,0,start,0.25,60,0,1.000523599999724,1.000523599999724,0.5339019999955781,True,near-rnd2,1,1,1,0.625,0.5,start,16,0
2,True,2.821384399998351,800.0,50.0,33.0,0,False,2,start,0.25,60,0,0.9983848999982001,0.9983848999982001,0.31369519999134354,True,near-000,1,1,1,0.625,0.5,start,16,0
3,True,2.3680596000049263,800.0,100.0,50.0,0,False,1,start,0.25,60,0,1.0053154000052018,1.0053154000052018,0.38263789999473374,True,near-rnd3,1,1,1,0.625,0.5,start,16,0
4,True,1.6436506000027293,800.0,50.0,33.0,10,False,2,start,0.25,60,0.1726939000072889,1.0138225999980932,1.1865165000053821,0.26702679999289103,True,near-160,1,1,1,0.625,0.5,start,16,0
5,True,1.6407756999979028,800.0,33.0,50.0,0,False,3,start,0.25,60,0,0.9870992000069236,0.9870992000069236,0.3903347000014037,True,near-rndm,1,1,1,0.625,0.5,start,16,0
6,True,4.174757300002966,800.0,50.0,33.0,5,False,2,start,0.25,60,0.08897279998927843,1.0121144000004278,1.1010871999897063,0.28980860000592656,True,near-080,1,1,1,0.625,0.5,start,16,0
7,True,2.2277615000057267,800.0,50.0,33.0,15,False,2,start,0.25,60,0.2525408000074094,1.0027097999991383,1.2552506000065478,0.3230336999986321,True,near-240,1,1,1,0.625,0.5,start,16,0
8,True,3.1273208999919007,800.0,50.0,33.0,15,False,2,start,0.25,44,0.25024219999613706,0.7526708999939729,1.00291309999011,0.3483854999940377,True,near-240,2,1,1,0.625,1.0,start,16,0
9,True,6.968837799999164,800.0,33.0,50.0,0,False,3,start,0.25,44,0,0.7268553000030806,0.7268553000030806,0.6424297999910777,True,near-rnd3,2,1,1,0.625,1.0,start,16,0
10,True,3.26970390000497,800.0,50.0,33.0,0,False,2,start,0.25,44,0,0.7428446000121767,0.7428446000121767,0.36676830000942573,True,near-000,2,1,1,0.625,1.0,start,16,0
11,True,2.286563200003002,800.0,800.0,50.0,0,False,0,start,0.25,44,0,0.7359396999963792,0.7359396999963792,0.41543770000862423,True,near-rnd2,2,1,1,0.625,1.0,start,16,0
12,True,1.6363907999912044,800.0,50.0,33.0,5,False,2,start,0.25,44,0.08923299999150913,0.7467586000129813,0.8359916000044905,0.3775335999962408,True,near-080,2,1,1,0.625,1.0,start,16,0
13,True,1.2705217000038829,800.0,100.0,50.0,0,False,1,start,0.25,44,0,0.7507514000026276,0.7507514000026276,0.39438059998792596,True,near-rndm,2,1,1,0.625,1.0,start,16,0
14,True,2.136229399999138,800.0,50.0,33.0,10,False,2,start,0.25,44,0.17108689999440685,0.7438158000004478,0.9149026999948546,0.16576950000307988,True,near-160,2,1,1,0.625,1.0,start,16,0
15,True,1.5412885999976425,800.0,50.0,33.0,15,False,2,start,0.25,28,0.24891829999978654,0.48586729999806266,0.7347855999978492,0.37796919999527745,True,near-240,3,1,1,0.625,1.0,start,16,0
16,True,1.7042646000045352,800.0,33.0,50.0,0,False,3,start,0.25,28,0,0.4707827999955043,0.4707827999955043,0.6539867000101367,False,near-rnd2,3,1,0,0.625,1.0,start,16,0
17,False,3.059852199992747,800.0,50.0,33.0,5,False,2,start,0.25,28,0.09165879999636672,0.49639529999694787,0.5880540999933146,0.6254912000003969,True,near-080,3,1,1,0.625,1.0,start,16,0
18,True,2.1519627000088803,800.0,100.0,50.0,0,False,1,start,0.25,28,0,0.4868834000080824,0.4868834000080824,0.48683330000494607,True,near-rnd3,3,1,1,0.625,1.0,start,16,0
19,True,3.1294839000038337,800.0,50.0,33.0,0,False,2,start,0.25,28,0,0.49486789999355096,0.49486789999355096,0.5005588999920292,True,near-000,3,1,1,0.625,1.0,start,16,0
20,True,1.3266688000003342,800.0,50.0,33.0,10,False,2,start,0.25,28,0.1686517000052845,0.4946182999992743,0.6632700000045588,0.5086735000077169,True,near-160,3,1,1,0.625,1.0,start,16,0
21,True,5.694332300001406,800.0,100.0,50.0,0,False,1,start,0.25,28,0,0.4966356000077212,0.4966356000077212,0.44820139999501407,True,near-rndm,3,1,1,0.625,1.0,start,16,0
22,True,4.402465799998026,800.0,50.0,33.0,5,False,2,start,0.25,28,0.09215870000480209,0.4915471999993315,0.5837059000041336,0.5975078000046778,True,near-080,3,1,1,0.625,1.0,start,16,0
23,True,5.455775199996424,800.0,800.0,50.0,0,False,0,up,0.25,44,0,0.7335957000032067,0.7335957000032067,0.384940000003553,True,near-rnd2,4,1,1,0.625,0.5,up,16,0
24,True,3.34390630001144,800.0,50.0,33.0,0,False,2,start,0.25,12,0,0.2363296999974409,0.2363296999974409,1.930002399996738,True,near-000,4,1,1,0.625,0.5,start,16,0
25,True,2.308634799992433,800.0,50.0,33.0,15,False,2,start,0.25,12,0.24988439999287948,0.2566771999991033,0.5065615999919828,1.0953200000076322,True,near-240,4,1,1,0.625,0.5,start,16,0
26,True,8.475779300002614,800.0,800.0,50.0,0,False,0,start,0.25,12,0,0.3667334000056144,0.3667334000056144,0.4826427999942098,True,near-rndm,4,1,1,0.625,0.5,start,16,0
27,True,2.0722017000080086,800.0,50.0,33.0,10,False,2,start,0.25,12,0.16916410000703763,0.22973219999403227,0.3988963000010699,1.5580587000004016,True,near-160,4,1,1,0.625,0.5,start,16,0
28,True,4.581476699997438,800.0,100.0,50.0,0,False,1,start,0.25,12,0,0.23237260000314564,0.23237260000314564,0.8299038000113796,True,near-rnd3,4,1,1,0.625,0.5,start,16,0
29,True,1.3729581000079634,800.0,50.0,33.0,5,False,2,start,0.25,12,0.08788360000471584,0.23266390000935644,0.3205475000140723,1.5626530000008643,False,near-080,4,1,0,0.625,0.5,start,16,0
30,True,2.6399142000009306,800.0,800.0,50.0,0,False,0,start,0.25,0,0,0.023960099992109463,0.023960099992109463,1.231098699994618,False,near-rndm,5,1,0,0.625,0.5,start,16,0
31,True,8.064473699996597,800.0,800.0,50.0,0,False,0,up,0.25,44,0,0.7344841000012821,0.7344841000012821,0.38547599999583326,True,near-rnd2,5,2,2,1.25,1.0,up,16,0
32,True,4.240868099994259,800.0,50.0,33.0,15,False,2,start,0.25,0,0.25253820000216365,0.03774210000119638,0.29028030000336,1.6265147000085562,False,near-240,5,1,0,0.625,0.5,start,16,0
33,True,1.8338116999948397,800.0,800.0,50.0,0,False,0,start,0.25,0,0,0.024985199997900054,0.024985199997900054,1.0649026000028243,True,near-rnd3,5,1,1,0.625,0.5,start,16,0
34,True,6.327953400003025,800.0,50.0,33.0,0,False,2,start,0.25,0,0,0.033268500003032386,0.033268500003032386,1.959005700002308,False,near-000,5,1,0,0.625,0.5,start,16,0
35,True,8.469241200000397,800.0,50.0,33.0,10,False,2,start,0.25,0,0.1701660999970045,0.03859630000079051,0.208762399997795,1.0255809999944177,False,near-160,5,1,0,0.625,0.5,start,16,0
36,True,1.8295803999935742,800.0,50.0,33.0,10,False,2,up,0.25,16,0.1731354000075953,0.3041977999964729,0.4773332000040682,0.5601005999924382,True,near-160,6,1,1,0.625,0.5,up,16,0
37,True,1.788203500007512,800.0,50.0,33.0,5,False,2,up,0.25,28,0.08887859999958891,0.488545799991698,0.5774243999912869,0.5434410000016214,True,near-080,5,1,1,0.625,0.5,up,16,0
38,True,1.8717567999992752,800.0,800.0,50.0,0,False,0,up,0.25,44,0,0.7332734000083292,0.7332734000083292,0.3332159999990836,True,near-rnd2,6,3,3,1.875,1.0,up,16,0
39,True,1.35597640000924,800.0,800.0,50.0,0,False,0,up,0.25,16,0,0.285945299998275,0.285945299998275,0.5652379999955883,True,near-rndm,6,1,1,0.625,0.5,up,16,0
40,True,1.3041471999895293,800.0,50.0,33.0,15,False,2,up,0.25,16,0.252648900001077,0.3031604999996489,0.5558094000007259,0.7292439000011655,True,near-240,6,1,1,0.625,0.5,up,16,0
41,True,1.262375799997244,800.0,800.0,50.0,0,False,0,start,0.25,0,0,0.023018500010948628,0.023018500010948628,1.5860816999920644,False,near-rnd3,6,1,0,0.625,0.5,start,16,0
42,True,2.244639800002915,800.0,50.0,33.0,0,False,2,up,0.25,16,0,0.3004034000041429,0.3004034000041429,1.0439098999922862,True,near-000,6,1,1,0.625,0.5,up,16,0
43,True,1.9852962000004482,800.0,800.0,50.0,0,False,0,up,0.25,16,0,0.2816940000047907,0.2816940000047907,0.5680404000013368,True,near-rndm,7,2,2,1.25,1.0,up,16,0
44,True,4.783297699992545,800.0,50.0,33.0,10,False,2,up,0.25,16,0.17232670000521466,0.3011098999995738,0.4734366000047885,0.6907449999998789,True,near-160,7,2,2,1.25,1.0,up,16,0
45,True,4.339696399998502,800.0,50.0,33.0,0,False,2,up,0.25,16,0,0.29416700000001583,0.29416700000001583,0.874871299994993,False,near-000,7,2,1,1.25,1.0,up,16,0
46,True,3.174054500006605,800.0,50.0,33.0,15,False,2,up,0.25,16,0.24991189999855123,0.3080006999953184,0.5579125999938697,0.45854330000292975,True,near-240,7,2,2,1.25,1.0,up,16,0
47,True,5.4228192000009585,800.0,100.0,50.0,0,False,1,up,0.25,16,0,0.30290949999471195,0.30290949999471195,0.6707291000057012,True,near-rnd3,7,1,1,0.625,0.5,up,16,0
48,True,2.175913600003696,800.0,50.0,33.0,5,False,2,up,0.25,28,0.09002370000234805,0.4958582999970531,0.5858819999994012,0.4948404000024311,True,near-080,6,2,2,1.25,1.0,up,16,0
49,True,1.9527902999980142,800.0,33.0,50.0,0,False,3,down,0.25,28,0,0.47373789999983273,0.47373789999983273,0.8744011999951908,False,near-rnd2,7,1,0,0.625,0.5,down,8,0
50,True,4.234186500005308,800.0,33.0,50.0,0,False,3,up,0.25,16,0,0.2764690000039991,0.2764690000039991,0.8941862000065157,False,near-rndm,8,3,2,1.875,1.0,up,16,0
51,True,3.819533000001684,800.0,50.0,33.0,10,False,2,up,0.25,16,0.17166300000099,0.3049120000068797,0.4765750000078697,0.8599023999995552,False,near-160,8,3,2,1.875,1.0,up,16,0
52,True,2.7064909000037005,800.0,50.0,33.0,15,False,2,up,0.25,16,0.24785870000778232,0.37853919999906793,0.6263979000068503,0.6747938000044087,True,near-240,8,3,3,1.875,1.0,up,16,0
53,True,2.876865500002168,800.0,33.0,50.0,0,False,3,up,0.25,16,0,0.27927670000644866,0.27927670000644866,1.0348506000009365,False,near-rnd3,8,2,1,1.25,1.0,up,16,0
54,True,1.601003199990373,800.0,50.0,33.0,5,False,2,up,0.25,28,0.09237569999822881,0.49464370000350755,0.5870194000017364,0.49486550000438,True,near-080,7,3,3,1.875,1.0,up,16,0
55,True,2.305392700000084,800.0,50.0,33.0,0,False,2,up,0.25,16,0,0.2950064000033308,0.2950064000033308,1.168453700011014,False,near-000,8,3,1,1.875,1.0,up,16,0
56,True,1.8876296999951592,800.0,800.0,50.0,0,False,0,down,0.25,28,0,0.47909240001172293,0.47909240001172293,0.39210120000643656,True,near-rnd2,8,2,1,1.25,1,down,8,0
57,True,1.6751375000021653,800.0,50.0,33.0,10,False,2,up,0.25,16,0.1687994000094477,0.2980482000129996,0.4668476000224473,0.7262143999978434,True,near-160,9,4,3,2.5,0.5,up,16,0
58,True,1.6526852999959374,800.0,100.0,50.0,0,False,1,up,0.25,16,0,0.3015480999893043,0.3015480999893043,0.5127648999914527,True,near-rnd3,9,3,2,1.875,1.0,up,16,0
59,True,1.9610279000044102,800.0,100.0,50.0,0,False,1,down,0.25,28,0,0.4925301000039326,0.4925301000039326,0.37917070000548847,True,near-rnd2,9,3,2,1.875,1,down,8,0
60,True,4.002100999990944,800.0,50.0,33.0,0,False,2,up,0.25,32,0,0.553763700008858,0.553763700008858,0.5816890999994939,True,near-000,9,1,1,0.625,0.5,up,16,0
61,True,1.4989885999966646,800.0,50.0,33.0,5,False,2,down,0.25,12,0.08789520000573248,0.2351048999989871,0.32300010000471957,0.8295357000024524,False,near-080,8,1,0,0.625,0.5,down,8,0
62,True,3.6354900999867823,800.0,100.0,50.0,0,False,1,up,0.25,16,0,0.30052819999400526,0.30052819999400526,0.6149676999921212,False,near-rndm,9,4,2,2.5,0.5,up,16,0
63,True,4.003166000009514,800.0,50.0,33.0,15,False,2,down,0.25,0,0.2516856000002008,0.03803759999573231,0.2897231999959331,1.091530599995167,False,near-240,9,1,0,0.625,0.5,down,8,0
64,True,2.1813598000007914,800.0,33.0,50.0,0,False,3,up,0.25,16,0,0.28006770000502,0.28006770000502,0.9779355999926338,True,near-rndm,10,5,3,3.125,0.5,up,16,0
65,True,11.76946830000088,800.0,50.0,33.0,15,False,2,down,0.25,0,0.24753239999699872,0.03584309999132529,0.283375499988324,0.8438546999968821,False,near-240,10,2,0,1.25,1,down,8,0
66,True,2.4429955999949016,800.0,800.0,50.0,0,False,0,down,0.25,28,0,0.48156130001007114,0.48156130001007114,0.3858451999985846,True,near-rnd2,10,4,3,2.5,1,down,8,0
67,False,8.732915100001264,800.0,50.0,33.0,0,False,2,up,0.25,32,0,0.5462496999971336,0.5462496999971336,0.5533315999928163,True,near-000,10,2,2,1.25,1.0,up,16,0
68,True,1.7098708000121405,800.0,50.0,33.0,10,False,2,up,0.25,16,0.16942449999623932,0.3028829999966547,0.472307499992894,0.6402199000003748,True,near-160,10,5,4,3.125,0.5,up,16,0
69,True,1.177628299992648,800.0,50.0,33.0,5,False,2,down,0.25,12,0.09051610001188237,0.2325764999986859,0.3230926000105683,1.0425727000110783,True,near-080,9,2,1,1.25,1,down,8,0
70,True,2.4588904999982333,800.0,100.0,50.0,0,False,1,up,0.25,16,0,0.30254089999652933,0.30254089999652933,0.5985521999973571,True,near-rnd3,10,4,3,2.5,0.5,up,16,0
71,False,1.3706204000045545,800.0,50.0,33.0,10,False,2,down,0.25,0,0.1724207000079332,0.035823900005198084,0.20824460001313128,0.7400181000120938,False,near-160,11,1,0,0.625,0.5,down,8,0
72,True,1.8468571999983396,800.0,50.0,33.0,0,False,2,up,0.25,32,0,0.5459754000039538,0.5459754000039538,0.409970799999428,True,near-000,10,2,2,1.25,1.0,up,16,0
73,True,2.3004274000122678,800.0,50.0,33.0,15,False,2,up,0.25,8,0.2539404999988619,0.18151059999945574,0.43545109999831766,0.8861557000054745,False,near-240,11,1,0,0.625,1,up,4,0
74,True,1.813706100001582,800.0,33.0,50.0,0,False,3,up,0.25,16,0,0.34836610000638757,0.34836610000638757,2.6109885000041686,False,near-rnd3,11,5,3,3.125,0.5,up,16,0
75,True,5.769000000000233,800.0,800.0,50.0,0,False,0,down,0.25,28,0,0.4776648999977624,0.4776648999977624,0.3703906000009738,True,near-rnd2,11,5,4,3.125,1,down,8,0
76,True,2.68747109999822,800.0,50.0,33.0,5,False,2,down,0.25,12,0.09210029999667313,0.23203820000344422,0.32413850000011735,0.9524699000030523,False,near-080,10,3,1,1.875,1,down,8,0
77,True,1.5270615000044927,800.0,33.0,50.0,0,False,3,up,0.25,16,0,0.27378079999471083,0.27378079999471083,1.4333144999982323,False,near-rndm,11,6,3,3.75,0.5,up,16,0
78,True,1.9613823999970919,800.0,800.0,50.0,0,False,0,down,0.25,28,0,0.4794790000014473,0.4794790000014473,0.401583800005028,True,near-rnd2,12,6,5,3.75,1,down,8,0
79,True,1.4632453000085661,800.0,800.0,50.0,0,False,0,up,0.25,16,0,0.28167550000944175,0.28167550000944175,0.5092411999939941,True,near-rnd3,12,6,4,3.75,0.5,up,16,0
80,True,1.6146096000011312,800.0,50.0,33.0,0,False,2,up,0.25,32,0,0.5553698000003351,0.5553698000003351,0.4243651000142563,True,near-000,11,3,3,1.875,1.0,up,16,0
81,True,5.727904299987131,800.0,50.0,33.0,15,False,2,up,0.25,8,0.24854350001260173,0.17985790000238921,0.42840140001499094,0.8006989000132307,False,near-240,12,2,0,1.25,1,up,4,0
82,True,1.6285374999861233,800.0,100.0,50.0,0,False,1,up,0.25,32,0,0.5608819000044605,0.5608819000044605,0.27602289999776985,True,near-rndm,12,1,1,0.625,0.5,up,16,0
83,True,2.413881800006493,800.0,50.0,33.0,5,False,2,down,0.25,12,0.08945190001395531,0.23262569999496918,0.3220776000089245,0.5945647999906214,True,near-080,11,4,2,2.5,1,down,8,0
84,True,1.609752300006221,800.0,50.0,33.0,10,False,2,down,0.25,0,0.16913329999078996,0.038861600012751296,0.20799490000354126,0.9764444000029471,True,near-160,11,1,1,0.625,0.5,down,8,0
85,True,0.9226594999927329,800.0,50.0,33.0,10,False,2,down,0.25,0,0.1759749000048032,0.03999889999977313,0.21597380000457633,0.8279864999931306,False,near-160,12,2,1,1.25,1,down,8,0
86,True,1.1522925999888685,800.0,50.0,33.0,5,False,2,down,0.25,12,0.0902248999918811,0.23926360000041313,0.32948849999229424,0.7877271999896038,False,near-080,12,5,2,3.125,1,down,8,0
87,True,2.055793999999878,800.0,800.0,50.0,0,False,0,up,0.25,16,0,0.2859100000059698,0.2859100000059698,0.673325499999919,True,near-rnd3,13,7,5,4.375,0.5,up,16,0
88,True,1.088778999997885,800.0,50.0,33.0,15,False,2,up,0.25,12,0.2502381000085734,0.2399059000017587,0.4901440000103321,0.56222209999396,True,near-240,13,1,1,0.625,1,up,4,0
89,True,1.8282410999963759,800.0,800.0,50.0,0,False,0,up,0.25,32,0,0.5401870999921812,0.5401870999921812,0.43709300000045914,True,near-rndm,13,2,2,1.25,1.0,up,16,0
90,True,2.5419671999989077,800.0,33.0,50.0,0,False,3,down,0.25,20,0,0.34581170001183636,0.34581170001183636,1.4228158999903826,True,near-rnd2,13,1,1,0.625,1,down,8,0
91,True,1.731453300002613,800.0,50.0,33.0,0,False,2,down,0.25,16,0,0.294520299998112,0.294520299998112,1.6134113000007346,False,near-000,12,1,0,0.625,0.5,down,8,0
92,True,8.702281099991524,800.0,100.0,50.0,0,False,1,up,0.25,32,0,0.5563133999967249,0.5563133999967249,0.3939683999924455,True,near-rndm,14,3,3,1.875,1.0,up,16,0
93,True,2.3467976999963867,800.0,50.0,33.0,5,False,2,up,0.25,20,0.08767949999310076,0.37155080000229646,0.4592302999953972,0.6986844999919413,False,near-080,13,1,0,0.625,1,up,4,0
94,True,5.047873800009256,800.0,33.0,50.0,0,False,3,down,0.25,0,0,0.017838599989772774,0.017838599989772774,1.58159169999999,False,near-rnd3,14,1,0,0.625,0.5,down,8,0
95,True,1.4275617999956012,800.0,50.0,33.0,10,False,2,down,0.25,0,0.16939770001044963,0.03642249999393243,0.20582020000438206,1.2732209999958286,False,near-160,13,3,1,1.875,1,down,8,0
96,True,1.8211745000007795,800.0,50.0,33.0,15,False,2,up,0.25,12,0.2526670999941416,0.2318957999959821,0.4845628999901237,0.642553500001668,True,near-240,14,2,2,1.25,1,up,4,0
97,True,4.422486299998127,800.0,100.0,50.0,0,False,1,down,0.25,20,0,0.3587148999940837,0.3587148999940837,0.4729659000004176,True,near-rnd2,14,2,2,1.25,1,down,8,0
98,True,1.5018035999964923,800.0,50.0,33.0,0,False,2,down,0.25,16,0,0.30076819998794235,0.30076819998794235,0.7165278999891598,False,near-000,13,2,0,1.25,1,down,8,0
99,True,1.4839743000047747,800.0,50.0,33.0,0,False,2,up,0.25,24,0,0.41634110000450164,0.41634110000450164,2.063385199988261,False,near-000,14,1,0,0.625,1,up,4,0
100,True,1.6087580000021262,800.0,100.0,50.0,0,False,1,down,0.25,16,0,0.29675520000455435,0.29675520000455435,0.8567199000099208,True,near-rndm,15,1,1,0.625,0.5,down,8,0
101,True,1.359142300003441,800.0,100.0,50.0,0,False,1,down,0.25,20,0,0.36164869999629445,0.36164869999629445,0.5143039999966277,True,near-rnd2,15,3,3,1.875,1,down,8,0
102,True,2.960532199998852,800.0,800.0,50.0,0,False,0,down,0.25,0,0,0.025869600009173155,0.025869600009173155,1.2986915999936173,True,near-rnd3,15,2,1,1.25,1,down,8,0
103,True,4.281094400008442,800.0,50.0,33.0,5,False,2,up,0.25,20,0.09321479999925941,0.36628069999278523,0.45949549999204464,0.513317899996764,True,near-080,14,2,1,1.25,1,up,4,0
104,True,4.057560499990359,800.0,50.0,33.0,10,False,2,down,0.25,0,0.17351849999977276,0.04115770000498742,0.21467620000476018,2.98044509999454,False,near-160,14,4,1,2.5,1,down,8,0
105,True,2.2620071999990614,800.0,50.0,33.0,15,False,2,up,0.25,12,0.24705000000540167,0.23101789999054745,0.4780678999959491,0.5948771999974269,True,near-240,15,3,3,1.875,1,up,4,0
106,True,7.780012000002898,800.0,800.0,50.0,0,False,0,down,0.25,16,0,0.28842359999543987,0.28842359999543987,0.5495779999910155,True,near-rndm,16,2,2,1.25,1,down,8,0
107,True,1.2444170000089798,800.0,50.0,33.0,5,False,2,up,0.25,20,0.09194890000799205,0.36229700001422316,0.4542459000222152,0.33930350000446197,True,near-080,15,3,2,1.875,1,up,4,0
108,True,1.2391801000048872,800.0,50.0,33.0,0,False,2,up,0.25,24,0,0.41831620001175907,0.41831620001175907,1.6777433000097517,False,near-000,15,2,0,1.25,1,up,4,0
109,True,2.106290600000648,800.0,50.0,33.0,15,False,2,down,0.25,8,0.2555652999872109,0.16810689998965245,0.42367219997686334,1.8201065000030212,False,near-240,16,1,0,0.625,1,down,2,0
110,True,2.483521300004213,800.0,33.0,50.0,0,False,3,down,0.25,12,0,0.21308450000651646,0.21308450000651646,1.3475941000069724,False,near-rnd2,16,1,0,0.625,1,down,8,0
111,True,1.5215790999936871,800.0,50.0,33.0,10,False,2,up,0.25,8,0.1744959000061499,0.16642129998945165,0.34091719999560155,1.0133031000004848,False,near-160,15,1,0,0.625,1,up,4,0
112,True,1.2482708000025013,800.0,33.0,50.0,0,False,3,down,0.25,0,0,0.018979599990416318,0.018979599990416318,2.5920443999930285,False,near-rnd3,16,3,1,1.875,1,down,8,0
113,True,2.635531499996432,800.0,100.0,50.0,0,False,1,down,0.25,12,0,0.2396870999946259,0.2396870999946259,0.6745163000014145,True,near-rnd2,17,2,1,1.25,1,down,8,0
114,True,1.2041293000074802,800.0,33.0,50.0,0,False,3,down,0.25,16,0,0.28186750000168104,0.28186750000168104,1.061579700006405,False,near-rndm,17,3,2,1.875,1,down,8,0
115,True,1.6681828000000678,800.0,50.0,33.0,15,False,2,down,0.25,8,0.24716860000626184,0.17222550000587944,0.4193941000121413,1.9907468000019435,False,near-240,17,2,0,1.25,2,down,2,0
116,True,1.5872899999958463,800.0,33.0,50.0,0,False,3,down,0.25,0,0,0.01871170000231359,0.01871170000231359,1.6685708000004524,True,near-rnd3,17,4,2,2.5,1,down,8,0
117,True,2.522797500001616,800.0,50.0,33.0,0,False,2,up,0.25,28,0,0.49265179999929387,0.49265179999929387,0.5290382999955909,True,near-000,16,1,1,0.625,1,up,4,0
118,True,2.169882200003485,800.0,50.0,33.0,10,False,2,up,0.25,8,0.17127340000297409,0.17523549999168608,0.34650889999466017,0.8487607999995816,True,near-160,16,2,1,1.25,1,up,4,0
119,True,7.6714326000073925,800.0,50.0,33.0,5,False,2,up,0.25,20,0.09114419999241363,0.3664413000078639,0.45758550000027753,0.5514254000008805,True,near-080,16,4,3,2.5,1,up,4,0
120,True,1.2046865000011167,800.0,50.0,33.0,15,False,2,down,0.25,8,0.253113900005701,0.16949290000775363,0.42260680001345463,0.8755487000016728,False,near-240,18,3,0,1.875,2,down,2,0
121,True,1.8055673000053503,800.0,100.0,50.0,0,False,1,down,0.25,12,0,0.2357525999977952,0.2357525999977952,0.5104132999986177,True,near-rnd2,18,3,2,1.875,1,down,8,0
122,True,1.3075685000076191,800.0,50.0,33.0,5,False,2,up,0.25,20,0.09092180000152439,0.36169030000746716,0.45261210000899155,0.8607611000043107,False,near-080,17,5,3,3.125,1,up,4,0
123,True,3.4125097999931313,800.0,33.0,50.0,0,False,3,down,0.25,0,0,0.018843100013327785,0.018843100013327785,1.5146584000030998,False,near-rnd3,18,5,2,3.125,1,down,8,0
124,True,1.2017959000077099,800.0,50.0,33.0,0,False,2,up,0.25,28,0,0.49042719999852125,0.49042719999852125,0.5568816000013612,True,near-000,17,2,2,1.25,1,up,4,0
125,True,2.347377099998994,800.0,33.0,50.0,0,False,3,down,0.25,16,0,0.37526169999910053,0.37526169999910053,0.8468159000040032,False,near-rndm,18,4,2,2.5,1,down,8,0
126,True,2.5953232000028947,800.0,50.0,33.0,10,False,2,up,0.25,8,0.1719468999945093,0.16711679998843465,0.33906369998294394,0.8017897000099765,True,near-160,17,3,2,1.875,1,up,4,0
127,True,1.68810559999838,800.0,100.0,50.0,0,False,1,up,0.25,8,0,0.1653918999945745,0.1653918999945745,0.6404034000006504,True,near-rnd3,19,1,1,0.625,1,up,4,0
128,True,2.629866300005233,800.0,800.0,50.0,0,False,0,down,0.25,12,0,0.21742810000432655,0.21742810000432655,0.514647200005129,True,near-rnd2,19,4,3,2.5,1,down,8,0
129,True,2.725626100000227,800.0,33.0,50.0,0,False,3,down,0.25,16,0,0.2798294999956852,0.2798294999956852,0.7560092000057921,False,near-rndm,19,5,2,3.125,1,down,8,0
130,True,7.412831900001038,800.0,50.0,33.0,5,False,2,up,0.25,20,0.0917331000091508,0.36107559999800287,0.4528087000071537,0.4214233999955468,True,near-080,18,6,4,3.75,1,up,4,0
131,True,1.358541099994909,800.0,50.0,33.0,15,False,2,down,0.25,8,0.250841400003992,0.17062129999976605,0.4214627000037581,0.825599300005706,False,near-240,19,4,0,2.5,2,down,2,0
132,True,1.2867549999937182,800.0,50.0,33.0,10,False,2,up,0.25,8,0.17459100000269245,0.17348990000027698,0.34808090000296943,0.9208076000068104,False,near-160,18,4,2,2.5,1,up,4,0
133,True,1.746537500002887,800.0,50.0,33.0,0,False,2,up,0.25,28,0,0.4940398000035202,0.4940398000035202,0.5862106999993557,True,near-000,18,3,3,1.875,1,up,4,0
134,True,1.8551409999927273,800.0,50.0,33.0,0,False,2,down,0.25,24,0,0.42577309999614954,0.42577309999614954,0.5608104999992065,True,near-000,19,1,1,0.625,1,down,2,0
135,True,1.8769561000081012,800.0,100.0,50.0,0,False,1,down,0.25,12,0,0.2294283999945037,0.2294283999945037,0.6302677000057884,True,near-rnd2,20,5,4,3.125,1,down,8,0
136,True,2.0046934000129113,800.0,50.0,33.0,15,False,2,up,0.25,10,0.25104319999809377,0.20629049999115523,0.457333699989249,0.4651886000065133,True,near-240,20,1,1,0.625,2,up,1,0
137,True,1.8693140999967,800.0,50.0,33.0,10,False,2,up,0.25,8,0.17431120001128875,0.1690658000006806,0.34337700001196936,1.4952669000049355,False,near-160,19,5,2,3.125,1,up,4,0
138,True,1.4423344000097131,800.0,33.0,50.0,0,False,3,up,0.25,8,0,0.15058659999340307,0.15058659999340307,1.5465965000039432,False,near-rnd3,20,2,1,1.25,1,up,4,0
139,True,4.473610599990934,800.0,50.0,33.0,5,False,2,up,0.25,20,0.09119089999876451,0.3658912999962922,0.4570821999950567,0.6469405999960145,False,near-080,19,7,4,4.375,1,up,4,0
140,True,1.5698200999904657,800.0,800.0,50.0,0,False,0,up,0.25,24,0,0.4192655999941053,0.4192655999941053,0.3738979999907315,True,near-rndm,20,1,1,0.625,1,up,4,0
141,True,7.937388799997279,800.0,100.0,50.0,0,False,1,down,0.25,12,0,0.23490440000023227,0.23490440000023227,0.5476056999905268,True,near-rnd2,21,6,5,3.75,1,down,8,0
142,True,1.3760326000046916,800.0,33.0,50.0,0,False,3,up,0.25,8,0,0.1514439000020502,0.1514439000020502,1.1834945000009611,False,near-rnd3,21,3,1,1.875,1,up,4,0
143,True,1.2814701000024797,800.0,50.0,33.0,15,False,2,up,0.25,10,0.253807200002484,0.20041289999790024,0.45422010000038426,0.6191789000004064,True,near-240,21,2,2,1.25,2,up,1,0
144,True,1.7231912999995984,800.0,50.0,33.0,0,False,2,down,0.25,24,0,0.4298892000078922,0.4298892000078922,0.7019208000128856,False,near-000,20,2,1,1.25,2,down,2,0
145,True,5.79554740000458,800.0,800.0,50.0,0,False,0,up,0.25,24,0,0.41001959999266546,0.41001959999266546,0.4249153999990085,True,near-rndm,21,2,2,1.25,1,up,4,0
146,True,1.416659399998025,800.0,50.0,33.0,5,False,2,up,0.25,20,0.09161879999737721,0.3624249999993481,0.4540437999967253,0.5817230999964522,True,near-080,20,8,5,5.0,1,up,4,0
147,True,1.5137189999950351,800.0,50.0,33.0,10,False,2,up,0.25,12,0.1699019999941811,0.23973359999945387,0.40963559999363497,0.5635194999922533,True,near-160,20,1,1,0.625,1,up,4,0
148,True,1.395269600005122,800.0,50.0,33.0,10,False,2,up,0.25,12,0.17131510000035632,0.23534199999994598,0.4066571000003023,0.7081825000059325,True,near-160,21,2,2,1.25,1,up,4,0
149,True,1.9336989000003086,800.0,50.0,33.0,0,False,2,down,0.25,24,0,0.42667980000260286,0.42667980000260286,0.45309500000439584,True,near-000,21,3,2,1.875,2,down,2,0
150,True,1.6990458000072977,800.0,50.0,33.0,15,False,2,up,0.25,10,0.2505148999916855,0.20009830000344664,0.45061319999513216,4.576856999992742,False,near-240,22,3,2,1.875,2,up,1,0
151,True,2.3667294000042602,800.0,100.0,50.0,0,False,1,down,0.25,4,0,0.10827080000308342,0.10827080000308342,0.9445858999970369,False,near-rnd2,22,1,0,0.625,1,down,16,0
152,True,7.257403599985992,800.0,800.0,50.0,0,False,0,up,0.25,24,0,0.4122295999986818,0.4122295999986818,0.4120944000023883,True,near-rndm,22,3,3,1.875,1,up,4,0
153,True,0.9163475999957882,800.0,50.0,33.0,5,False,2,up,0.25,20,0.08912560000317171,0.3638756000000285,0.4530012000032002,0.7377998000010848,False,near-080,21,9,5,5.625,1,up,4,1
154,True,3.4341018999984954,800.0,33.0,50.0,0,False,3,up,0.25,8,0,0.1518087000004016,0.1518087000004016,1.4351758000120753,False,near-rnd3,22,4,1,2.5,1,up,4,0
155,True,3.062981299997773,800.0,800.0,50.0,0,False,0,down,0.25,4,0,0.09299230000760872,0.09299230000760872,0.7020210999908159,True,near-rnd2,23,2,1,1.25,1.0,down,16,0
156,True,1.9023500999901444,800.0,50.0,33.0,0,False,2,down,0.25,24,0,0.42193130000669044,0.42193130000669044,0.6072870000061812,False,near-000,22,4,2,2.5,2,down,2,0
157,True,1.3181104000104824,800.0,800.0,50.0,0,False,0,up,0.25,12,0,0.2239387000008719,0.2239387000008719,0.5127625000022817,True,near-rnd3,23,1,1,0.625,1,up,4,0
158,True,1.4515056000091136,800.0,50.0,33.0,5,False,2,up,0.25,20,0.096702800001367,0.3707521999895107,0.4674549999908777,0.6864810999977635,True,near-080,22,10,6,6.25,1,up,4,1
159,True,1.3332444000116084,800.0,50.0,33.0,10,False,2,up,0.25,12,0.1731413999950746,0.2380338000075426,0.4111752000026172,0.7387859000009485,True,near-160,22,3,3,1.875,1,up,4,0
160,True,1.1405281999905128,800.0,800.0,50.0,0,False,0,down,0.25,20,0,0.34589200001209974,0.34589200001209974,0.532242099987343,True,near-rndm,23,1,1,0.625,1,down,2,0
161,True,0.9192709000053583,800.0,50.0,33.0,15,False,2,up,0.25,10,0.25078910001320764,0.20523859999957494,0.4560277000127826,0.6032141000032425,True,near-240,23,4,3,2.5,2,up,1,0
162,True,1.2274153000034858,800.0,50.0,33.0,10,False,2,down,0.25,8,0.17041430000972468,0.1819880999973975,0.3524024000071222,1.1454540999984602,False,near-160,23,1,0,0.625,1,down,2,0
163,True,1.2750445999990916,800.0,100.0,50.0,0,False,1,down,0.25,20,0,0.36785199999576434,0.36785199999576434,0.6233001999935368,True,near-rndm,24,2,2,1.25,2,down,2,0
164,True,1.8756037999992259,800.0,50.0,33.0,15,False,2,up,0.25,10,0.25240329999360256,0.20741680001083296,0.4598201000044355,1.4786089999979595,True,near-240,24,5,4,3.125,2,up,1,0
165,True,4.679519099998288,800.0,800.0,50.0,0,False,0,up,0.25,12,0,0.22045449999859557,0.22045449999859557,0.5247257000009995,True,near-rnd3,24,2,2,1.25,1,up,4,0
166,True,2.606902999992599,800.0,50.0,33.0,5,False,2,up,0.25,20,0.09093960000609513,0.35878739999316167,0.4497269999992568,0.7917553000006592,True,near-080,23,11,7,6.875,1,up,4,1
167,True,1.6680141000106232,800.0,50.0,33.0,0,False,2,down,0.25,24,0,0.42826359999889974,0.42826359999889974,0.4416227999900002,True,near-000,23,5,3,3.125,2,down,2,0
168,True,1.7880322999990312,800.0,800.0,50.0,0,False,0,down,0.25,4,0,0.09880259999772534,0.09880259999772534,0.6966420999960974,True,near-rnd2,24,3,2,1.875,1.0,down,16,0
169,True,0.921626199997263,800.0,33.0,50.0,0,False,3,down,0.25,20,0,0.3408514000038849,0.3408514000038849,1.5374870999949053,False,near-rndm,25,3,2,1.875,2,down,2,0
170,True,1.6645422000001417,800.0,50.0,33.0,10,False,2,down,0.25,8,0.17057539999950677,0.16974279998976272,0.3403181999892695,1.9045871999987867,True,near-160,24,2,1,1.25,2,down,2,0
171,True,10.585899500001688,800.0,50.0,33.0,15,False,2,up,0.25,10,0.2497824999882141,0.20829600001161452,0.45807849999982864,0.8311327999981586,True,near-240,25,6,5,3.75,2,up,1,0
172,True,4.806733699995675,800.0,50.0,33.0,5,False,2,up,0.25,20,0.0904826000041794,0.35818720000679605,0.44866980001097545,0.6127163000055589,True,near-080,24,12,8,7.5,1,up,4,1
173,True,1.5405478000029689,800.0,50.0,33.0,0,False,2,down,0.25,24,0,0.42688889999408275,0.42688889999408275,1.2595870999939507,False,near-000,24,6,3,3.75,2,down,2,0
174,True,3.0204515000077663,800.0,100.0,50.0,0,False,1,down,0.25,4,0,0.10940699999628123,0.10940699999628123,0.7053032999974675,True,near-rnd2,25,4,3,2.5,0.5,down,16,0
175,True,1.8497865999961505,800.0,33.0,50.0,0,False,3,up,0.25,12,0,0.21434979999321513,0.21434979999321513,1.2138495999970473,True,near-rnd3,25,3,3,1.875,1,up,4,0
176,True,7.478838600000017,800.0,50.0,33.0,0,False,2,down,0.25,24,0,0.4204545000102371,0.4204545000102371,0.6105952999932924,True,near-000,25,7,4,4.375,2,down,2,0
177,True,1.631383800006006,800.0,100.0,50.0,0,False,1,down,0.25,20,0,0.3670462000009138,0.3670462000009138,0.5283867999969516,True,near-rndm,26,4,3,2.5,2,down,2,0
178,True,2.639853899992886,800.0,50.0,33.0,10,False,2,down,0.25,8,0.16780890000518411,0.17344870000670198,0.3412576000118861,1.3555648000037763,False,near-160,25,3,1,1.875,2,down,2,0
179,True,6.312971200008178,800.0,50.0,33.0,15,False,2,up,0.25,10,0.25253740001062397,0.202227399990079,0.45476480000070296,0.8309183999954257,False,near-240,26,7,5,4.375,2,up,1,0
180,True,4.059818899986567,800.0,50.0,33.0,5,False,2,up,0.25,20,0.08914159999403637,0.36252510000485927,0.45166669999889564,0.5511090000072727,True,near-080,25,13,9,8.125,1,up,4,1
181,True,3.8994895000068936,800.0,800.0,50.0,0,False,0,down,0.25,8,0,0.1557667000015499,0.1557667000015499,0.5932303999870783,True,near-rnd3,26,1,1,0.625,1,down,2,0
182,True,1.2516035000007832,800.0,100.0,50.0,0,False,1,down,0.25,4,0,0.11223319999407977,0.11223319999407977,0.6976169999979902,True,near-rnd2,26,5,4,3.125,0.5,down,16,0
183,True,4.031703400003607,800.0,800.0,50.0,0,False,0,down,0.25,8,0,0.16119240000261925,0.16119240000261925,0.6020999000029406,True,near-rnd3,27,2,2,1.25,2,down,2,0
184,True,1.1836143999971682,800.0,33.0,50.0,0,False,3,down,0.25,0,0,0.019455400004517287,0.019455400004517287,1.5337637000047835,False,near-rnd2,27,1,0,0.625,0.5,down,16,0
185,True,2.2376383999944665,800.0,50.0,33.0,15,False,2,up,0.25,10,0.24984370000311173,0.20790809999743942,0.45775180000055116,0.5716456000081962,True,near-240,27,8,6,5.0,2,up,1,0
186,True,1.8294528999977047,800.0,50.0,33.0,5,False,2,up,0.25,20,0.09471040000789799,0.36815419999766164,0.4628646000055596,1.516605900003924,True,near-080,26,14,10,8.75,1,up,4,1
187,True,1.310910900007002,800.0,50.0,33.0,10,False,2,down,0.25,8,0.17295249999733642,0.17326530000718776,0.3462178000045242,2.29106239999237,False,near-160,26,4,1,2.5,2,down,2,0
188,True,1.6366054999962216,800.0,50.0,33.0,0,False,2,down,0.25,24,0,0.42525580000074115,0.42525580000074115,0.6539646000019275,False,near-000,26,8,4,5.0,2,down,2,0
189,True,3.626903800002765,800.0,100.0,50.0,0,False,1,down,0.25,20,0,0.36673930000688415,0.36673930000688415,0.38008510001236573,True,near-rndm,27,5,4,3.125,2,down,2,0
190,True,2.925401899992721,800.0,33.0,50.0,0,False,3,down,0.25,20,0,0.34415760000410955,0.34415760000410955,0.7760930999938864,False,near-rndm,28,6,4,3.75,2,down,2,0
191,True,3.1244281999970553,800.0,50.0,33.0,10,False,2,down,0.25,8,0.1728791000059573,0.17734909999126103,0.3502281999972183,1.6426414000015939,False,near-160,27,5,1,3.125,2,down,2,0
192,True,6.736358199996175,800.0,33.0,50.0,0,False,3,down,0.25,8,0,0.14891390000411775,0.14891390000411775,1.2708810999902198,False,near-rnd3,28,3,2,1.875,2,down,2,0
193,True,1.883819399998174,800.0,50.0,33.0,0,False,2,down,0.25,24,0,0.42490389999875333,0.42490389999875333,0.45056209999893326,True,near-000,27,9,5,5.625,2,down,2,1
194,True,1.8634632000030251,800.0,50.0,33.0,5,False,2,down,0.25,18,0.09222070001123939,0.3335781999921892,0.42579890000342857,0.6503673999977764,True,near-080,27,1,1,0.625,1,down,1,0
195,True,1.745135899996967,800.0,100.0,50.0,0,False,1,down,0.25,0,0,0.03951399998913985,0.03951399998913985,1.506864000009955,False,near-rnd2,28,2,0,1.25,1.0,down,16,0
196,True,4.098509799994645,800.0,50.0,33.0,15,False,2,up,0.25,10,0.253429700009292,0.20369510000455193,0.4571248000138439,0.5654119000100764,False,near-240,28,9,6,5.625,2,up,1,1
197,True,3.235493600004702,800.0,50.0,33.0,5,False,2,down,0.25,18,0.0926474000007147,0.32895309999003075,0.42160049999074545,0.4402447000029497,True,near-080,28,2,2,1.25,2,down,1,0
198,True,2.699513899991871,800.0,50.0,33.0,0,False,2,down,0.25,24,0,0.4298147999943467,0.4298147999943467,0.3505781999992905,True,near-000,28,10,6,6.25,2,down,2,1
199,False,1.9601243000070099,800.0,50.0,33.0,10,False,2,up,0.25,10,0.17240330000640824,0.21221760001208168,0.3846209000184899,0.5188551999890478,False,near-160,28,1,0,0.625,2,up,1,0
200,True,1.0930750999978045,800.0,33.0,50.0,0,False,3,down,0.25,8,0,0.1662876999907894,0.1662876999907894,1.7554721000051359,False,near-rnd3,29,4,2,2.5,2,down,2,0
201,True,2.332416599994758,800.0,50.0,33.0,15,False,2,up,0.25,10,0.249117400002433,0.20480849999876227,0.45392590000119526,1.0039093999948818,True,near-240,29,10,7,6.25,2,up,1,1
202,True,5.189519699997618,800.0,100.0,50.0,0,False,1,up,0.25,16,0,0.29463390000455547,0.29463390000455547,0.48843730000953656,True,near-rnd2,29,1,1,0.625,1.0,up,8,0
203,True,2.1306238999968627,800.0,800.0,50.0,0,False,0,down,0.25,20,0,0.34854609999456443,0.34854609999456443,0.4959089000039967,True,near-rndm,29,7,5,4.375,2,down,2,0
204,True,2.093186500002048,800.0,50.0,33.0,5,False,2,down,0.25,18,0.090139599997201,0.3274090999912005,0.4175486999884015,0.7521838000102434,False,near-080,29,3,2,1.875,2,down,1,0
205,True,1.2836332000006223,800.0,33.0,50.0,0,False,3,up,0.25,16,0,0.28519260000030044,0.28519260000030044,1.5576450000080513,False,near-rnd2,30,2,1,1.25,1,up,8,0
206,True,5.855020400005742,800.0,33.0,50.0,0,False,3,down,0.25,20,0,0.33692359999986365,0.33692359999986365,0.8790524000069126,False,near-rndm,30,8,5,5.0,2,down,2,0
207,True,4.906150900002103,800.0,50.0,33.0,10,False,2,up,0.25,10,0.16893129999516532,0.20677499999874271,0.37570629999390803,0.7906000999937532,True,near-160,28,1,1,0.625,2,up,1,0
208,True,1.2472491999942577,800.0,33.0,50.0,0,False,3,down,0.25,8,0,0.15260390000184998,0.15260390000184998,3.053972800000338,False,near-rnd3,30,5,2,3.125,2,down,2,0
209,True,2.9027307000069413,800.0,50.0,33.0,0,False,2,down,0.25,24,0,0.42284709999512415,0.42284709999512415,0.8887779000069713,True,near-000,29,11,7,6.875,2,down,2,1
210,True,2.1938961999985622,800.0,50.0,33.0,15,False,2,up,0.25,10,0.25479740000446327,0.20527180000499357,0.46006920000945684,0.6843462999968324,True,near-240,30,11,8,6.875,2,up,1,1
211,True,3.0657955999922706,800.0,50.0,33.0,10,False,2,up,0.25,10,0.1724231999978656,0.352203999995254,0.5246271999931196,0.3594182999950135,True,near-160,29,2,2,1.25,2,up,1,0
212,True,1.0712949000007939,800.0,50.0,33.0,5,False,2,down,0.25,18,0.0895440000022063,0.3325494000018807,0.422093400004087,0.48387470000307076,True,near-080,30,4,3,2.5,2,down,1,0
213,True,1.510017799999332,800.0,50.0,33.0,0,False,2,down,0.25,24,0,0.4254170000058366,0.4254170000058366,0.5235611999960383,True,near-000,30,12,8,7.5,2,down,2,1
214,True,1.6386933000030695,800.0,800.0,50.0,0,False,0,down,0.25,20,0,0.3521042999927886,0.3521042999927886,1.0320143999997526,False,near-rndm,31,9,5,5.625,2,down,2,1
215,True,5.390045000007376,800.0,100.0,50.0,0,False,1,down,0.25,8,0,0.17543109999678563,0.17543109999678563,0.717719100008253,True,near-rnd3,31,6,3,3.75,2,down,2,0
216,True,4.100987800004077,800.0,800.0,50.0,0,False,0,up,0.25,16,0,0.28625479999755044,0.28625479999755044,0.4948205000109738,True,near-rnd2,31,3,2,1.875,1,up,8,0
217,True,7.456345099999453,800.0,50.0,33.0,15,False,2,up,0.25,10,0.25485850000404753,0.19969429999764543,0.45455280000169296,0.7938770000037039,False,near-240,31,12,8,7.5,2,up,1,1
218,True,1.6791514999931678,800.0,50.0,33.0,0,False,2,down,0.25,24,0,0.42714140001044143,0.42714140001044143,0.5338686000031885,False,near-000,31,13,8,8.125,2,down,2,1
219,True,3.2825554000010015,800.0,33.0,50.0,0,False,3,down,0.25,8,0,0.15469340000709053,0.15469340000709053,1.8284980000025826,True,near-rnd3,32,7,4,4.375,2,down,2,0
220,True,2.318817699997453,800.0,50.0,33.0,10,False,2,up,0.25,10,0.17567629998666234,0.20938470000692178,0.3850609999935841,0.4410093000042252,True,near-160,30,3,3,1.875,2,up,1,0
221,True,3.161196699991706,800.0,50.0,33.0,15,False,2,up,0.25,10,0.24824339999759104,0.20026959999813698,0.448512999995728,0.5422645999933593,True,near-240,32,13,9,8.125,2,up,1,1
222,True,2.259668099999544,800.0,33.0,50.0,0,False,3,down,0.25,20,0,0.34091680000710767,0.34091680000710767,1.205421499995282,True,near-rndm,32,10,6,6.25,2,down,2,1
223,True,1.3234607999911532,800.0,100.0,50.0,0,False,1,up,0.25,16,0,0.2980715000012424,0.2980715000012424,0.5821252000023378,True,near-rnd2,32,4,3,2.5,1,up,8,0
224,True,2.091048899994348,800.0,50.0,33.0,5,False,2,down,0.25,18,0.08793979999609292,0.3244143000047188,0.41235410000081174,0.4754862999980105,True,near-080,31,5,4,3.125,2,down,1,0
225,False,1.5575776000041515,800.0,800.0,50.0,0,False,0,up,0.25,16,0,0.2842421999957878,0.2842421999957878,0.6555862000095658,True,near-rnd2,33,5,4,3.125,1,up,8,0
226,True,2.2153337000054307,800.0,50.0,33.0,10,False,2,up,0.25,10,0.16899399999238085,0.2060796999867307,0.37507369997911155,0.6089710000087507,True,near-160,31,4,4,2.5,2,up,1,0
227,True,1.9407109000021592,800.0,50.0,33.0,0,False,2,down,0.25,24,0,0.4272793999989517,0.4272793999989517,0.4323383000009926,True,near-000,32,14,9,8.75,2,down,2,1
228,True,2.4426825999980792,800.0,100.0,50.0,0,False,1,down,0.25,20,0,0.35652239999035373,0.35652239999035373,0.48799769999459386,True,near-rndm,33,11,7,6.875,2,down,2,1
229,True,1.4720230999955675,800.0,50.0,33.0,5,False,2,down,0.25,18,0.09383480000542477,0.3337467999954242,0.427581600000849,0.6035303000098793,True,near-080,32,6,5,3.75,2,down,1,0
230,True,4.951737000010326,800.0,33.0,50.0,0,False,3,down,0.25,8,0,0.1473686999961501,0.1473686999961501,1.3436021999950754,True,near-rnd3,33,8,5,5.0,2,down,2,0
231,True,12.93356789999234,800.0,50.0,33.0,15,False,2,up,0.25,10,0.2534365000028629,0.2039175000099931,0.457354000012856,1.1388057000003755,True,near-240,33,14,10,8.75,2,up,1,1
232,True,1.3198274000023957,800.0,800.0,50.0,0,False,0,down,0.25,20,0,0.35153770000033546,0.35153770000033546,0.4954867999913404,True,near-rndm,34,12,8,7.5,2,down,2,1
233,True,5.282645900006173,800.0,50.0,33.0,15,False,2,up,0.25,10,0.2493032999918796,0.20914239999547135,0.45844569998735096,0.6149682999966899,True,near-240,34,15,11,9.375,2,up,1,1
234,True,1.4038615000026766,800.0,50.0,33.0,5,False,2,down,0.25,18,0.09440159999940079,0.331355899994378,0.42575749999377877,0.4503654000000097,True,near-080,33,7,6,4.375,2,down,1,0
235,True,2.208900400000857,800.0,50.0,33.0,10,False,2,up,0.25,10,0.1673326000018278,0.21157399998628534,0.37890659998811316,0.6208808000083081,True,near-160,32,5,5,3.125,2,up,1,0
236,True,1.358235899999272,800.0,33.0,50.0,0,False,3,down,0.25,8,0,0.1466521999973338,0.1466521999973338,1.3317711999989115,True,near-rnd3,34,9,6,5.625,2,down,2,1
237,True,1.9613015999930212,800.0,33.0,50.0,0,False,3,up,0.25,16,0,0.276400199989439,0.276400199989439,1.1917372000025352,False,near-rnd2,33,5,3,3.125,1,up,8,0
238,True,1.8743317000044044,800.0,50.0,33.0,0,False,2,down,0.25,24,0,0.4239629000076093,0.4239629000076093,0.503957699998864,True,near-000,33,15,10,9.375,2,down,2,1
239,True,6.552707800001372,800.0,50.0,33.0,5,False,2,down,0.25,18,0.09230589999060612,0.33865229999355506,0.4309581999841612,0.5726192000001902,False,near-080,34,8,6,5.0,2,down,1,0
240,True,1.8245184999977937,800.0,50.0,33.0,10,False,2,up,0.25,10,0.17021300000487827,0.20062550000147894,0.3708385000063572,0.5688248999940697,False,near-160,33,6,5,3.75,2,up,1,0
241,False,2.250756499997806,800.0,800.0,50.0,0,False,0,up,0.25,16,0,0.2863455999904545,0.2863455999904545,0.43267359999299515,True,near-rnd2,34,6,4,3.75,1,up,8,0
242,True,1.1207358999963617,800.0,100.0,50.0,0,False,1,down,0.25,8,0,0.16573130000324454,0.16573130000324454,0.5316580999933649,True,near-rnd3,35,10,7,6.25,2,down,2,1
243,True,1.3191976999951294,800.0,50.0,33.0,0,False,2,down,0.25,24,0,0.4242579999990994,0.4242579999990994,1.1388198000058765,False,near-000,34,16,10,10.0,2,down,2,1
244,True,1.7844181999971624,800.0,50.0,33.0,15,False,2,up,0.25,10,0.2502861999964807,0.20685770000272896,0.4571438999992097,0.6729881999926874,True,near-240,35,16,12,10.0,2,up,1,1
245,True,1.2654406000074232,800.0,100.0,50.0,0,False,1,down,0.25,20,0,0.36842470000556204,0.36842470000556204,0.6026891000074102,True,near-rndm,35,13,9,8.125,2,down,2,1
246,True,2.607283399993321,800.0,50.0,33.0,10,False,2,up,0.25,10,0.17296919999353122,0.20758620000560768,0.3805553999991389,0.7228495000017574,False,near-160,34,7,5,4.375,2,up,1,0
247,True,2.437558200006606,800.0,50.0,33.0,0,False,2,down,0.25,24,0,0.43187420000322163,0.43187420000322163,0.38128129999677185,True,near-000,35,17,11,10.625,2,down,2,2
248,True,1.6675391000026138,800.0,50.0,33.0,5,False,2,down,0.25,18,0.0895847999927355,0.3352141999930609,0.4247989999857964,0.45615129999350756,True,near-080,35,9,7,5.625,2,down,1,1
249,True,1.5061738999938825,800.0,33.0,50.0,0,False,3,up,0.25,16,0,0.2802591000072425,0.2802591000072425,1.516195100004552,False,near-rnd2,34,6,3,3.75,1,up,8,0
250,True,3.6526003000035416,800.0,800.0,50.0,0,False,0,down,0.25,8,0,0.15745630000310484,0.15745630000310484,0.7038151000015205,True,near-rnd3,36,11,8,6.875,2,down,2,1
251,True,2.3500782000046456,800.0,800.0,50.0,0,False,0,down,0.25,20,0,0.3798529000050621,0.3798529000050621,0.45658099999127444,True,near-rndm,36,14,10,8.75,2,down,2,1
252,True,4.750181399998837,800.0,50.0,33.0,0,False,2,down,0.25,24,0,0.42029789999651257,0.42029789999651257,0.4031852999905823,True,near-000,36,18,12,11.25,2,down,2,2
253,True,1.8122982999921078,800.0,50.0,33.0,5,False,2,down,0.25,18,0.09241690000635572,0.3330035999970278,0.4254205000033835,0.9250446999940323,True,near-080,36,10,8,6.25,2,down,1,1
254,True,2.647660899994662,800.0,50.0,33.0,10,False,2,up,0.25,10,0.1698681999987457,0.20860399999946821,0.3784721999982139,1.0798326000076486,False,near-160,35,8,5,5.0,2,up,1,0
255,True,1.521329600000172,800.0,800.0,50.0,0,False,0,up,0.25,16,0,0.28162500000325963,0.28162500000325963,0.5871829999960028,True,near-rnd2,35,7,4,4.375,1,up,8,0
256,True,1.1504453000088688,800.0,33.0,50.0,0,False,3,down,0.25,20,0,0.3440483000013046,0.3440483000013046,0.9943535000056727,False,near-rndm,37,15,10,9.375,2,down,2,1
257,True,1.412766699999338,800.0,800.0,50.0,0,False,0,down,0.25,8,0,0.19097720000718255,0.19097720000718255,0.5398543999908725,True,near-rnd3,37,12,9,7.5,2,down,2,1
258,True,1.5938709000038216,800.0,100.0,50.0,0,False,1,up,0.25,16,0,0.30517890000191983,0.30517890000191983,0.5266332000028342,True,near-rnd2,36,8,5,5.0,1,up,8,0
259,True,2.6542805999924894,800.0,800.0,50.0,0,False,0,down,0.25,20,0,0.3528939000098035,0.3528939000098035,0.3738301999983378,True,near-rndm,38,16,11,10.0,2,down,2,1
260,True,1.6526653000037186,800.0,50.0,33.0,10,False,2,up,0.25,10,0.16891120000218507,0.198992100005853,0.36790330000803806,1.6228736999910325,False,near-160,36,9,5,5.625,2,up,1,1
261,True,4.97463000001153,800.0,50.0,33.0,0,False,2,down,0.25,24,0,0.42047070000262465,0.42047070000262465,0.5337460000009742,False,near-000,37,19,12,11.875,2,down,2,2
262,True,2.1857228000008035,800.0,800.0,50.0,0,False,0,down,0.25,8,0,0.15907009999500588,0.15907009999500588,0.555610199997318,True,near-rnd3,38,13,10,8.125,2,down,2,1
263,True,0.9721650999999838,800.0,50.0,33.0,5,False,2,down,0.25,18,0.09367750000092201,0.3285113000019919,0.4221888000029139,0.5178854999976465,True,near-080,37,11,9,6.875,2,down,1,1
264,True,3.347645300003933,800.0,800.0,50.0,0,False,0,down,0.25,20,0,0.35274470000877045,0.35274470000877045,0.3799099000025308,True,near-rndm,39,17,12,10.625,2,down,2,2
265,True,1.7398487000027671,800.0,50.0,33.0,0,False,2,down,0.25,24,0,0.4214979999960633,0.4214979999960633,0.6505556000047363,False,near-000,38,20,12,12.5,2,down,2,2
266,True,1.430830600002082,800.0,50.0,33.0,10,False,2,up,0.25,10,0.1696756000019377,0.19886000000406057,0.3685356000059983,0.5213691000099061,True,near-160,37,10,6,6.25,2,up,1,1
267,True,2.196515100004035,800.0,50.0,33.0,5,False,2,down,0.25,17,0.09405659999174532,0.3195508000062546,0.4136073999979999,0.6144001000066055,True,near-080,38,1,1,0.625,2,down,1,0
268,True,1.225636700008181,800.0,800.0,50.0,0,False,0,down,0.25,8,0,0.19908350000332575,0.19908350000332575,0.5913426999904914,True,near-rnd3,39,14,11,8.75,2,down,2,1
269,True,1.2984290000022156,800.0,100.0,50.0,0,False,1,up,0.25,16,0,0.29786210000747815,0.29786210000747815,0.6570306000066921,True,near-rnd2,37,9,6,5.625,1,up,8,1
270,True,1.7749691999924835,800.0,50.0,33.0,5,False,2,down,0.25,17,0.09055259999877308,0.3143265000107931,0.4048791000095662,0.49017420000745915,True,near-080,39,2,2,1.25,3,down,1,0
271,True,2.021255400002701,800.0,50.0,33.0,10,False,2,up,0.25,10,0.167490199994063,0.20184989999688696,0.36934009999094997,0.7853622999973595,False,near-160,38,11,6,6.875,2,up,1,1
272,True,3.7177166999899782,800.0,100.0,50.0,0,False,1,down,0.25,7,0,0.1569374999962747,0.1569374999962747,0.6140199000074062,True,near-rnd3,40,1,1,0.625,2,down,1,0
273,True,3.0455949000024702,800.0,800.0,50.0,0,False,0,up,0.25,16,0,0.28428200000780635,0.28428200000780635,0.41997790000459645,True,near-rnd2,38,10,7,6.25,1,up,8,1
274,True,0.951281999994535,800.0,50.0,33.0,0,False,2,down,0.25,24,0,0.42223769999691285,0.42223769999691285,0.42314990000159014,True,near-000,39,21,13,13.125,2,down,2,2
275,True,1.9844172000011895,800.0,33.0,50.0,0,False,3,down,0.25,20,0,0.33970169999520294,0.33970169999520294,1.3218249000055948,False,near-rndm,40,18,12,11.25,2,down,2,2
276,True,1.9681117000000086,800.0,50.0,33.0,5,False,2,down,0.25,17,0.08982240001205355,0.30568720000155736,0.3955096000136109,0.5912676000007195,True,near-080,40,3,3,1.875,3,down,1,0
277,True,39.353960699998424,800.0,100.0,50.0,0,False,1,down,0.25,7,0,0.1470833999919705,0.1470833999919705,1.0442075000028126,False,near-rnd3,41,2,1,1.25,2,down,1,0
278,True,1.4455338000116171,800.0,50.0,33.0,0,False,2,down,0.25,24,0,0.4295653000008315,0.4295653000008315,0.6317398999963189,False,near-000,40,22,13,13.75,2,down,2,2
279,True,1.4218727999978,800.0,100.0,50.0,0,False,1,up,0.25,16,0,0.2950235999887809,0.2950235999887809,0.5453753000037977,True,near-rnd2,39,11,8,6.875,1,up,8,1
280,True,3.435938599999645,800.0,100.0,50.0,0,False,1,down,0.25,20,0,0.5037104000075487,0.5037104000075487,0.3027781000128016,True,near-rndm,41,19,13,11.875,2,down,2,2
281,True,1.3687021999940043,800.0,50.0,33.0,10,False,2,up,0.25,10,0.17424369999207556,0.2038291999924695,0.3780728999845451,1.1951297000050545,True,near-160,39,12,7,7.5,2,up,1,1
282,True,1.626859099997091,800.0,800.0,50.0,0,False,0,down,0.25,20,0,0.35213569999905303,0.35213569999905303,0.5789627000049222,True,near-rndm,42,20,14,12.5,2,down,2,2
283,True,2.0377127999963704,800.0,100.0,50.0,0,False,1,down,0.25,7,0,0.15463439999439288,0.15463439999439288,0.6245273999957135,True,near-rnd3,42,3,2,1.875,2,down,1,0
284,True,1.2568232999910833,800.0,50.0,33.0,0,False,2,down,0.25,24,0,0.4211165000015171,0.4211165000015171,0.5433621999982279,True,near-000,41,23,14,14.375,2,down,2,2
285,True,2.354333499999484,800.0,33.0,50.0,0,False,3,down,0.25,12,0,0.2182118999917293,0.2182118999917293,1.4221424999996088,False,near-rnd2,40,1,0,0.625,1,down,2,0
286,True,3.5730862000054913,800.0,50.0,33.0,10,False,2,up,0.25,10,0.17256089999864344,0.19964760000584647,0.3722085000044899,0.4879695000126958,True,near-160,40,13,8,8.125,2,up,1,1
287,True,2.0778929000080097,800.0,50.0,33.0,5,False,2,down,0.25,17,0.08992260000377428,0.31609239999670535,0.40601500000047963,0.3773975999938557,True,near-080,41,4,4,2.5,3,down,1,0
288,True,1.4917451000073925,800.0,50.0,33.0,0,False,2,down,0.25,24,0,0.41781120000814553,0.41781120000814553,0.6107475999888266,True,near-000,42,24,15,15.0,2,down,2,2
289,True,1.2867664000077639,800.0,33.0,50.0,0,False,3,down,0.25,20,0,0.33809350000228733,0.33809350000228733,0.971822899999097,False,near-rndm,43,21,14,13.125,2,down,2,2
290,True,1.2860255999985384,800.0,50.0,33.0,5,False,2,down,0.25,17,0.0894101000012597,0.31548819999443367,0.4048982999956934,0.42856939999910537,True,near-080,42,5,5,3.125,3,down,1,0
291,True,1.6346061000076588,800.0,33.0,50.0,0,False,3,down,0.25,12,0,0.21146700000099372,0.21146700000099372,2.4039038000046276,False,near-rnd2,41,2,0,1.25,2,down,2,0
292,True,3.025061399996048,800.0,33.0,50.0,0,False,3,down,0.25,7,0,0.13853510000626557,0.13853510000626557,7.751144500012742,False,near-rnd3,43,4,2,2.5,2,down,1,0
293,True,3.2171034999919357,800.0,50.0,33.0,10,False,2,up,0.25,10,0.16778980000526644,0.20337170000129845,0.3711615000065649,0.664043099997798,False,near-160,41,14,8,8.75,2,up,1,1
294,True,2.3079032999958145,800.0,800.0,50.0,0,False,0,down,0.25,20,0,0.35005069999897387,0.35005069999897387,0.32555979999597184,True,near-rndm,44,22,15,13.75,2,down,2,2
295,True,2.2835428999969736,800.0,50.0,33.0,10,False,2,up,0.25,10,0.17428170000493992,0.22996810000040568,0.4042498000053456,1.6716615000041202,False,near-160,42,15,8,9.375,2,up,1,1
296,True,1.228289799997583,800.0,50.0,33.0,5,False,2,down,0.25,17,0.08937450000667013,0.3227805000060471,0.4121550000127172,0.6833267999900272,True,near-080,43,6,6,3.75,3,down,1,0
297,True,4.835057200005394,800.0,100.0,50.0,0,False,1,down,0.25,12,0,0.23227419999602716,0.23227419999602716,0.5496530999953393,True,near-rnd2,42,3,1,1.875,2,down,2,0
298,True,1.4845960000093328,800.0,800.0,50.0,0,False,0,down,0.25,7,0,0.14078660000814125,0.14078660000814125,0.6277944000030402,True,near-rnd3,44,5,3,3.125,2,down,1,0
299,True,1.7162939999980154,800.0,50.0,33.0,5,False,2,down,0.25,17,0.08869799999229144,0.31792059999133926,0.4066185999836307,0.6968726000050083,True,near-080,44,7,7,4.375,3,down,1,0
300,True,3.9350430999911623,800.0,33.0,50.0,0,False,3,down,0.25,12,0,0.21926870000606868,0.21926870000606868,1.4100302000006195,True,near-rnd2,43,4,2,2.5,2,down,2,0
301,True,47.57968519999122,800.0,100.0,50.0,0,False,1,down,0.25,20,0,0.36769889999413863,0.36769889999413863,0.5879509999940637,True,near-rndm,45,23,16,14.375,2,down,2,2
302,True,3.256588300006115,800.0,100.0,50.0,0,False,1,down,0.25,7,0,0.15692989999661222,0.15692989999661222,0.6914237000019057,True,near-rnd3,45,6,4,3.75,2,down,1,0
303,True,3.4001111999969,800.0,50.0,33.0,10,False,2,up,0.25,10,0.17118119999940973,0.1990113000065321,0.37019250000594184,1.1634527999995044,True,near-160,43,16,9,10.0,2,up,1,1
304,True,2.725777300001937,800.0,800.0,50.0,0,False,0,down,0.25,12,0,0.21899769999436103,0.21899769999436103,0.5431394000042928,True,near-rnd2,44,5,3,3.125,2,down,2,0
305,True,1.5114028000098187,800.0,50.0,33.0,5,False,2,down,0.25,17,0.08747869999206159,0.3191913999908138,0.4066700999828754,1.298642399997334,True,near-080,45,8,8,5.0,3,down,1,0
