trial,primeIter,primeCorrect,primeTime,primeDepth,stimDepth,extraDepth,driveFrames,nearToFar,diopters,direction,size,intensity,extraLatency,mainLatency,totalLatency,responseTime,correct,caseLabel,caseTrial,trialsAtStep,stepCorrect,expected,w,direction,stepsize,stepChange
1,1,True,2.532813499987242,800.0,50.0,33.0,15,False,2,start,0.16666666666666666,60,0.290915200006566,1.0012152999988757,1.2921305000054417,4.03115739999339,False,near-240,1,1,0,0.625,0.5,start,16,0
2,2,True,1.4083144000032917,800.0,100.0,50.0,0,False,1,start,0.16666666666666666,60,0,1.0151249999908032,1.0151249999908032,1.3164224999927683,True,near-rnd2,1,1,1,0.625,0.5,start,16,0
3,2,True,1.3451499000075273,800.0,50.0,33.0,0,False,2,start,0.16666666666666666,60,0,1.0035647000040626,1.0035647000040626,0.7657373999973061,True,near-000,1,1,1,0.625,0.5,start,16,0
4,1,True,2.039083399999072,800.0,50.0,33.0,10,False,2,start,0.16666666666666666,60,0.1733193999971263,1.011929300002521,1.1852486999996472,0.5146583000023384,True,near-160,1,1,1,0.625,0.5,start,16,0
5,2,True,1.2309674999996787,800.0,800.0,50.0,0,False,0,start,0.16666666666666666,60,0,1.0059863999922527,1.0059863999922527,0.830199599993648,True,near-rndm,1,1,1,0.625,0.5,start,16,0
6,2,True,1.1999381000059657,800.0,50.0,33.0,5,False,2,start,0.16666666666666666,60,0.09455560000787955,1.025827699995716,1.1203833000035957,1.1694043999887072,True,near-080,1,1,1,0.625,0.5,start,16,0
7,1,True,1.4211268000071868,800.0,33.0,50.0,0,False,3,start,0.16666666666666666,60,0,0.9834716000041226,0.9834716000041226,0.8138082999939797,True,near-rnd3,1,1,1,0.625,0.5,start,16,0
8,2,True,2.812195500009693,800.0,50.0,33.0,10,False,2,start,0.16666666666666666,44,0.17187679999915417,0.7517536000086693,0.9236304000078235,0.6161266999988584,True,near-160,2,1,1,0.625,1.0,start,16,0
9,1,True,1.7172857999976259,800.0,100.0,50.0,0,False,1,start,0.16666666666666666,44,0,0.7422261000028811,0.7422261000028811,0.734180200000992,True,near-rnd2,2,1,1,0.625,1.0,start,16,0
10,1,True,2.278087399987271,800.0,33.0,50.0,0,False,3,start,0.16666666666666666,44,0,0.7297973000095226,0.7297973000095226,0.7145084999938263,True,near-rnd3,2,1,1,0.625,1.0,start,16,0
11,3,True,3.1365491000033217,800.0,50.0,33.0,0,False,2,start,0.16666666666666666,44,0,0.7583718999958364,0.7583718999958364,1.0766086999938125,True,near-000,2,1,1,0.625,1.0,start,16,0
12,3,True,1.1539269000058994,800.0,800.0,50.0,0,False,0,start,0.16666666666666666,44,0,0.7620795000111684,0.7620795000111684,0.4859271000023,True,near-rndm,2,1,1,0.625,1.0,start,16,0
13,1,True,1.4835891999973683,800.0,50.0,33.0,5,False,2,start,0.16666666666666666,44,0.0931989000091562,0.7429579000017839,0.8361568000109401,0.5812411999941105,True,near-080,2,1,1,0.625,1.0,start,16,0
14,2,True,0.9617200000066077,800.0,50.0,33.0,15,False,2,start,0.16666666666666666,60,0.2657465000083903,1.0186543000017991,1.2844008000101894,0.9050913999963086,True,near-240,2,2,1,1.25,1.0,start,16,0
15,2,True,1.1470287999982247,800.0,33.0,50.0,0,False,3,start,0.16666666666666666,28,0,0.4827583999867784,0.4827583999867784,2.3367671000014525,True,near-rnd3,3,1,1,0.625,1.0,start,16,0
16,1,True,1.4543326999992132,800.0,50.0,33.0,15,False,2,start,0.16666666666666666,44,0.2537049999955343,0.7464601000101538,1.0001651000056881,0.5100367999984883,True,near-240,3,1,1,0.625,1.0,start,16,0
17,2,True,1.0957705000037095,800.0,50.0,33.0,10,False,2,start,0.16666666666666666,28,0.18322670001361985,0.5124589000042761,0.6956856000178959,0.6448755000019446,True,near-160,3,1,1,0.625,1.0,start,16,0
18,2,True,1.0813820000039414,800.0,50.0,33.0,5,False,2,start,0.16666666666666666,28,0.09191339999961201,0.5039948999910848,0.5959082999906968,4.81108879999374,False,near-080,3,1,0,0.625,1.0,start,16,0
19,1,True,1.6408124000008684,800.0,800.0,50.0,0,False,0,start,0.16666666666666666,28,0,0.47670410000137053,0.47670410000137053,0.554604200005997,True,near-rndm,3,1,1,0.625,1.0,start,16,0
20,4,True,1.2735879000101704,800.0,50.0,33.0,0,False,2,start,0.16666666666666666,28,0,0.5130140000110259,0.5130140000110259,0.5786061999970116,True,near-000,3,1,1,0.625,1.0,start,16,0
21,3,True,1.3067410000076052,800.0,100.0,50.0,0,False,1,start,0.16666666666666666,28,0,0.5168219000042882,0.5168219000042882,0.6250765000004321,True,near-rnd2,3,1,1,0.625,1.0,start,16,0
22,2,True,0.9339202999981353,800.0,50.0,33.0,5,False,2,up,0.16666666666666666,44,0.10135529999388382,0.7631343999964884,0.8644896999903722,0.47621549999166746,True,near-080,4,1,1,0.625,0.5,up,16,0
23,2,True,1.3732474999997066,800.0,33.0,50.0,0,False,3,start,0.16666666666666666,12,0,0.21821659999841359,0.21821659999841359,1.245735299991793,False,near-rnd3,4,1,0,0.625,0.5,start,16,0
24,2,True,0.9648479000024963,800.0,50.0,33.0,0,False,2,start,0.16666666666666666,12,0,0.23474490000808146,0.23474490000808146,0.9661711999942781,False,near-000,4,1,0,0.625,0.5,start,16,0
25,2,True,1.286822599999141,800.0,800.0,50.0,0,False,0,start,0.16666666666666666,12,0,0.2311046999966493,0.2311046999966493,0.6876485999964643,True,near-rndm,4,1,1,0.625,0.5,start,16,0
26,1,True,1.2508287000091514,800.0,100.0,50.0,0,False,1,start,0.16666666666666666,12,0,0.283709799987264,0.283709799987264,2.0094058999966364,True,near-rnd2,4,1,1,0.625,0.5,start,16,0
27,2,True,1.3443562999891583,800.0,50.0,33.0,15,False,2,start,0.16666666666666666,28,0.26646810000238474,0.4993633999984013,0.765831500000786,0.6809801000053994,True,near-240,4,1,1,0.625,0.5,start,16,0
28,1,True,1.4071873999928357,800.0,50.0,33.0,10,False,2,start,0.16666666666666666,12,0.1692447999957949,0.23195960000157356,0.40120439999736845,3.1904633000085596,True,near-160,4,1,1,0.625,0.5,start,16,0
29,2,True,1.156135000012,800.0,50.0,33.0,10,False,2,start,0.16666666666666666,0,0.17869280000741128,0.047773600002983585,0.22646640001039486,1.4351499999902444,False,near-160,5,1,0,0.625,0.5,start,16,0
30,1,True,1.8040805000055116,800.0,800.0,50.0,0,False,0,start,0.16666666666666666,0,0,0.02543080000032205,0.02543080000032205,3.5666518000070937,False,near-rndm,5,1,0,0.625,0.5,start,16,0
31,2,True,2.376736799997161,800.0,50.0,33.0,0,False,2,up,0.16666666666666666,28,0,0.5031828999926802,0.5031828999926802,1.1383758000010857,True,near-000,5,1,1,0.625,0.5,up,16,0
32,3,True,1.1162331000086851,800.0,50.0,33.0,5,False,2,up,0.16666666666666666,44,0.09856309999304358,0.778039800003171,0.8766028999962145,0.49148879999120254,True,near-080,5,2,2,1.25,1.0,up,16,0
33,1,True,1.6064710000064224,800.0,100.0,50.0,0,False,1,start,0.16666666666666666,0,0,0.03817200000048615,0.03817200000048615,4.344423600006849,False,near-rnd2,5,1,0,0.625,0.5,start,16,0
34,2,True,1.124442900007125,800.0,33.0,50.0,0,False,3,up,0.16666666666666666,28,0,0.4824135000089882,0.4824135000089882,0.9037566000042716,False,near-rnd3,5,1,0,0.625,0.5,up,16,0
35,2,True,1.0630226000066614,800.0,50.0,33.0,15,False,2,start,0.16666666666666666,12,0.2565579000074649,0.2375043999927584,0.49406230000022333,4.298206799998297,False,near-240,5,1,0,0.625,0.5,start,16,0
36,3,True,1.4755263999977615,800.0,50.0,33.0,10,False,2,up,0.16666666666666666,16,0.1850747999997111,0.30795669999497477,0.4930314999946859,2.6617580999882193,True,near-160,6,1,1,0.625,0.5,up,16,0
37,3,True,2.22146130001056,800.0,50.0,33.0,0,False,2,up,0.16666666666666666,28,0,0.5151556999917375,0.5151556999917375,1.137078500003554,True,near-000,6,2,2,1.25,1.0,up,16,0
38,4,True,1.1165212000050815,800.0,50.0,33.0,15,False,2,up,0.16666666666666666,28,0.2681412999954773,0.5191389999963576,0.7872802999918349,0.9214800000045216,True,near-240,6,1,1,0.625,0.5,up,16,0
39,2,True,1.239139299999806,800.0,800.0,50.0,0,False,0,up,0.16666666666666666,16,0,0.2957970999996178,0.2957970999996178,0.7514026999997441,True,near-rndm,6,1,1,0.625,0.5,up,16,0
40,4,True,1.3936558999994304,800.0,33.0,50.0,0,False,3,up,0.16666666666666666,28,0,0.49434560000372585,0.49434560000372585,3.055677900003502,False,near-rnd3,6,2,0,1.25,1.0,up,16,0
41,3,True,0.9752104000071995,800.0,50.0,33.0,5,False,2,up,0.16666666666666666,44,0.11177010000392329,0.7647695999912685,0.8765396999951918,2.5740655999979936,False,near-080,6,3,2,1.875,1.0,up,16,0
42,3,True,0.930087899992941,800.0,100.0,50.0,0,False,1,up,0.16666666666666666,16,0,0.31825490000483114,0.31825490000483114,0.9185384000011254,True,near-rnd2,6,1,1,0.625,0.5,up,16,0
43,2,True,1.294336699997075,800.0,800.0,50.0,0,False,0,up,0.16666666666666666,16,0,0.2939061000070069,0.2939061000070069,1.4268280999967828,True,near-rndm,7,2,2,1.25,1.0,up,16,0
44,1,True,1.0176340999896638,800.0,50.0,33.0,15,False,2,up,0.16666666666666666,28,0.2535558000090532,0.49171539999952074,0.7452712000085739,0.7285663999937242,True,near-240,7,2,2,1.25,1.0,up,16,0
45,1,True,1.1171852999978,800.0,100.0,50.0,0,False,1,up,0.16666666666666666,16,0,0.30644490000850055,0.30644490000850055,2.5907105000078445,False,near-rnd2,7,2,1,1.25,1.0,up,16,0
46,4,True,1.3625585999980103,800.0,50.0,33.0,0,False,2,up,0.16666666666666666,28,0,0.5121072999900207,0.5121072999900207,0.7712152000021888,True,near-000,7,3,3,1.875,1.0,up,16,0
47,1,True,1.8277326000097673,800.0,50.0,33.0,10,False,2,up,0.16666666666666666,16,0.17115080000075977,0.2973404000076698,0.4684912000084296,1.986603199999081,True,near-160,7,2,2,1.25,1.0,up,16,0
48,2,True,1.2280604999978095,800.0,50.0,33.0,5,False,2,up,0.16666666666666666,44,0.09408840000105556,0.7674916999967536,0.8615800999978092,0.6417094999924302,True,near-080,7,4,3,2.5,0.5,up,16,0
49,2,True,0.9804091999976663,800.0,33.0,50.0,0,False,3,up,0.16666666666666666,44,0,0.8427139999985229,0.8427139999985229,4.996565699999337,False,near-rnd3,7,1,0,0.625,1.0,up,16,0
50,1,True,1.6201926000067033,800.0,33.0,50.0,0,False,3,up,0.16666666666666666,44,0,0.7251401000103215,0.7251401000103215,0.7583799999993062,True,near-rnd3,8,2,1,1.25,1.0,up,16,0
51,1,True,0.9589476999972248,800.0,100.0,50.0,0,False,1,up,0.16666666666666666,16,0,0.29503459999978077,0.29503459999978077,5.952755600010278,False,near-rnd2,8,3,1,1.875,1.0,up,16,0
52,2,True,1.2212371999921743,800.0,50.0,33.0,10,False,2,up,0.16666666666666666,16,0.1804303999961121,0.3106211999984225,0.4910515999945346,3.1825886000005994,False,near-160,8,3,2,1.875,1.0,up,16,0
53,1,True,1.6730974999954924,800.0,50.0,33.0,15,False,2,up,0.16666666666666666,28,0.2486229999922216,0.49186929999268614,0.7404922999849077,0.70935940000345,True,near-240,8,3,3,1.875,1.0,up,16,0
54,1,True,1.1699240000016289,800.0,800.0,50.0,0,False,0,up,0.16666666666666666,16,0,0.28633580000314396,0.28633580000314396,0.761114599998109,True,near-rndm,8,3,3,1.875,1.0,up,16,0
55,2,True,3.136410599996452,800.0,50.0,33.0,0,False,2,down,0.16666666666666666,12,0,0.24948359999689274,0.24948359999689274,1.5463855999987572,False,near-000,8,1,0,0.625,0.5,down,8,0
56,1,True,1.2089229000121122,800.0,50.0,33.0,5,False,2,up,0.16666666666666666,44,0.0916746000002604,0.7579122000024654,0.8495868000027258,1.4479313000047114,False,near-080,8,5,3,3.125,0.5,up,16,0
57,2,True,1.2235803000075975,800.0,50.0,33.0,10,False,2,up,0.16666666666666666,16,0.18293159999302588,0.31858149998879526,0.5015130999818211,1.307680400001118,False,near-160,9,4,2,2.5,0.5,up,16,0
58,2,True,1.8299024000007194,800.0,100.0,50.0,0,False,1,up,0.16666666666666666,32,0,0.5611951999890152,0.5611951999890152,1.0526590000081342,True,near-rnd2,9,1,1,0.625,0.5,up,16,0
59,1,True,2.1482270999986213,800.0,33.0,50.0,0,False,3,up,0.16666666666666666,44,0,0.7261384000012185,0.7261384000012185,0.7382090000028256,True,near-rnd3,9,3,2,1.875,1.0,up,16,0
60,2,True,1.0361441999993986,800.0,50.0,33.0,0,False,2,down,0.16666666666666666,12,0,0.2458045000093989,0.2458045000093989,1.2129970000096364,False,near-000,9,2,0,1.25,1,down,8,0
61,4,True,0.8453548999968916,800.0,800.0,50.0,0,False,0,down,0.16666666666666666,0,0,0.04795989999547601,0.04795989999547601,2.2362685999978567,False,near-rndm,9,1,0,0.625,0.5,down,8,0
62,2,True,0.9296395999990636,800.0,50.0,33.0,15,False,2,down,0.16666666666666666,12,0.26142859998799395,0.24281939999491442,0.5042479999829084,7.198149899995769,True,near-240,9,1,1,0.625,0.5,down,8,0
63,4,True,1.5948604000004707,800.0,50.0,33.0,5,False,2,up,0.16666666666666666,44,0.10650259999965783,0.7912740000028862,0.897776600002544,0.8816785999952117,True,near-080,9,6,4,3.75,0.5,up,16,0
64,4,True,1.3410674999904586,800.0,50.0,33.0,0,False,2,up,0.16666666666666666,20,0,0.5680490999948233,0.5680490999948233,0.8677105999959167,True,near-000,10,1,1,0.625,1,up,4,0
65,1,True,1.4600697999994736,800.0,33.0,50.0,0,False,3,up,0.16666666666666666,44,0,0.7247543999983463,0.7247543999983463,6.966392200003611,False,near-rnd3,10,4,2,2.5,0.5,up,16,0
66,4,True,1.1817906999931438,800.0,800.0,50.0,0,False,0,down,0.16666666666666666,0,0,0.049560599989490584,0.049560599989490584,2.439430900005391,False,near-rndm,10,2,0,1.25,1,down,8,0
67,1,True,1.0978452999988804,800.0,50.0,33.0,5,False,2,up,0.16666666666666666,44,0.09002620000683237,0.7688989000016591,0.8589251000084914,0.5621987000049558,True,near-080,10,7,5,4.375,0.5,up,16,0
68,2,True,1.357751499992446,800.0,50.0,33.0,10,False,2,up,0.16666666666666666,16,0.17516699999396224,0.30471929999475833,0.47988629998872057,3.8120403999928385,False,near-160,10,5,2,3.125,0.5,up,16,0
69,3,True,1.520522600010736,800.0,100.0,50.0,0,False,1,up,0.16666666666666666,32,0,0.5798150999908103,0.5798150999908103,0.6048638999927789,True,near-rnd2,10,2,2,1.25,1.0,up,16,0
70,2,True,1.1932589999923948,800.0,50.0,33.0,15,False,2,down,0.16666666666666666,12,0.2521409000037238,0.24621829998795874,0.49835919999168254,1.58508730000176,False,near-240,10,2,1,1.25,1,down,8,0
71,1,True,1.2052746999979718,800.0,100.0,50.0,0,False,1,up,0.16666666666666666,32,0,0.5593888000003062,0.5593888000003062,0.7500964000064414,True,near-rnd2,11,3,3,1.875,1.0,up,16,0
72,2,True,0.7526445999974385,800.0,50.0,33.0,0,False,2,up,0.16666666666666666,20,0,0.3657418999937363,0.3657418999937363,1.0367261999926995,False,near-000,11,2,1,1.25,1,up,4,0
73,3,True,0.8819062999973539,800.0,50.0,33.0,5,False,2,down,0.16666666666666666,28,0.10697819999768399,0.5211547999933828,0.6281329999910668,2.2959320999943884,False,near-080,11,1,0,0.625,0.5,down,8,0
74,2,True,1.1238878000003751,800.0,50.0,33.0,10,False,2,up,0.16666666666666666,32,0.17195620000711642,0.5648592999932589,0.7368155000003753,0.8844055999943521,True,near-160,11,1,1,0.625,0.5,up,16,0
75,1,True,1.3427806999970926,800.0,33.0,50.0,0,False,3,up,0.16666666666666666,44,0,0.809263799994369,0.809263799994369,0.6075846999883652,True,near-rnd3,11,5,3,3.125,0.5,up,16,0
76,1,True,2.498360600002343,800.0,50.0,33.0,15,False,2,down,0.16666666666666666,12,0.25073700000939425,0.23960380000062287,0.4903408000100171,0.7504764000041177,True,near-240,11,3,2,1.875,1,down,8,0
77,1,True,1.0157299999991665,800.0,800.0,50.0,0,False,0,up,0.16666666666666666,8,0,0.15673669999523554,0.15673669999523554,2.3792639000021154,True,near-rndm,11,1,1,0.625,1,up,4,0
78,2,True,1.4670036000024993,800.0,50.0,33.0,5,False,2,down,0.16666666666666666,28,0.09663450000516605,0.504589300006046,0.601223800011212,0.9729771999991499,True,near-080,12,2,1,1.25,1,down,8,0
79,1,True,3.013631900001201,800.0,50.0,33.0,15,False,2,down,0.16666666666666666,12,0.2532929000008153,0.2320000999898184,0.4852929999906337,1.4749540000048,True,near-240,12,4,3,2.5,1,down,8,0
80,2,True,0.8773220000002766,800.0,33.0,50.0,0,False,3,up,0.16666666666666666,44,0,0.7325995999999577,0.7325995999999577,0.6146016000129748,True,near-rnd3,12,6,4,3.75,0.5,up,16,0
81,3,True,1.5342455000063637,800.0,100.0,50.0,0,False,1,down,0.16666666666666666,16,0,0.31860740001138765,0.31860740001138765,1.3907526999973925,False,near-rnd2,12,1,0,0.625,0.5,down,8,0
82,1,True,1.5133065999980317,800.0,50.0,33.0,10,False,2,up,0.16666666666666666,32,0.17138460000569467,0.6838033999956679,0.8551880000013625,0.663818299988634,True,near-160,12,2,2,1.25,1.0,up,16,0
83,1,True,1.096295099996496,800.0,50.0,33.0,0,False,2,up,0.16666666666666666,20,0,0.36580959999992047,0.36580959999992047,2.246760699999868,False,near-000,12,3,1,1.875,1,up,4,0
84,1,True,1.4992179999971995,800.0,800.0,50.0,0,False,0,up,0.16666666666666666,8,0,0.15572180000890512,0.15572180000890512,1.0768145999900298,True,near-rndm,12,2,2,1.25,1,up,4,0
85,3,True,1.1465514000010444,800.0,50.0,33.0,15,False,2,down,0.16666666666666666,12,0.2693923999904655,0.26124829999753274,0.5306406999879982,0.9622415000048932,False,near-240,13,5,3,3.125,1,down,8,0
86,3,True,1.9426181000017095,800.0,100.0,50.0,0,False,1,down,0.16666666666666666,16,0,0.3219117999979062,0.3219117999979062,4.15281369999866,True,near-rnd2,13,2,1,1.25,1,down,8,0
87,3,True,1.477125099991099,800.0,33.0,50.0,0,False,3,up,0.16666666666666666,44,0,0.7452514999895357,0.7452514999895357,0.6811708000022918,True,near-rnd3,13,7,5,4.375,0.5,up,16,0
88,3,True,1.378127100004349,800.0,50.0,33.0,10,False,2,up,0.16666666666666666,32,0.18362049999996088,0.5867766000010306,0.7703971000009915,0.44949450000422075,True,near-160,13,3,3,1.875,1.0,up,16,0
89,3,True,1.3232221999933245,800.0,800.0,50.0,0,False,0,up,0.16666666666666666,8,0,0.17976449998968747,0.17976449998968747,1.6839260999986436,True,near-rndm,13,3,3,1.875,1,up,4,0
90,2,True,1.385191199995461,800.0,50.0,33.0,5,False,2,down,0.16666666666666666,28,0.09630900000047404,0.4924689000035869,0.5887779000040609,0.61785169999348,True,near-080,13,3,2,1.875,1,down,8,0
91,1,True,2.334440300008282,800.0,50.0,33.0,0,False,2,up,0.16666666666666666,20,0,0.358508500008611,0.358508500008611,0.7686556999979075,True,near-000,13,4,2,2.5,1,up,4,0
92,2,True,1.1676556000020355,800.0,800.0,50.0,0,False,0,down,0.16666666666666666,4,0,0.09661920000507962,0.09661920000507962,1.9098568000044907,True,near-rndm,14,1,1,0.625,1,down,2,0
93,1,True,1.0561589000135427,800.0,33.0,50.0,0,False,3,down,0.16666666666666666,28,0,0.46981870000308845,0.46981870000308845,2.9017996000038693,False,near-rnd3,14,1,0,0.625,0.5,down,8,0
94,2,True,0.7328253000014229,800.0,50.0,33.0,10,False,2,down,0.16666666666666666,16,0.1726875000022119,0.3139250000094762,0.4866125000116881,0.8722664000088116,False,near-160,14,1,0,0.625,0.5,down,8,0
95,2,True,0.8806134000042221,800.0,50.0,33.0,0,False,2,up,0.16666666666666666,20,0,0.37278459999652114,0.37278459999652114,2.2181240000063553,True,near-000,14,5,3,3.125,1,up,4,0
96,2,True,0.7899427999946056,800.0,50.0,33.0,5,False,2,down,0.16666666666666666,28,0.10178799999994226,0.5163558999920497,0.6181438999919919,0.53894240000227,True,near-080,14,4,3,2.5,1,down,8,0
97,3,True,1.0642196999979205,800.0,100.0,50.0,0,False,1,down,0.16666666666666666,16,0,0.47336380000342615,0.47336380000342615,0.5693051999987802,True,near-rnd2,14,3,2,1.875,1,down,8,0
98,1,True,1.5462641000049189,800.0,50.0,33.0,15,False,2,down,0.16666666666666666,12,0.2532095000060508,0.23447539999324363,0.48768489999929443,1.011779899999965,False,near-240,14,6,3,3.75,1,down,8,0
99,2,True,0.8887549999926705,800.0,800.0,50.0,0,False,0,down,0.16666666666666666,4,0,0.10367570001108106,0.10367570001108106,0.9962302999920212,True,near-rndm,15,2,2,1.25,2,down,2,0
100,2,True,1.2131382999941707,800.0,33.0,50.0,0,False,3,down,0.16666666666666666,28,0,0.48065939999651164,0.48065939999651164,0.8555194000073243,True,near-rnd3,15,2,1,1.25,1,down,8,0
101,3,True,1.4565467000065837,800.0,100.0,50.0,0,False,1,down,0.16666666666666666,16,0,0.3271724000078393,0.3271724000078393,0.7674263999942923,True,near-rnd2,15,4,3,2.5,1,down,8,0
102,2,True,0.7715170999872498,800.0,50.0,33.0,5,False,2,down,0.16666666666666666,28,0.09746849999646656,0.5036844999995083,0.6011529999959748,0.40048290000413544,True,near-080,15,5,4,3.125,1,down,8,0
103,1,True,1.0012630999990506,800.0,50.0,33.0,0,False,2,up,0.16666666666666666,20,0,0.3654985999892233,0.3654985999892233,0.9775337999890326,False,near-000,15,6,3,3.75,1,up,4,0
104,1,True,1.5027986999921268,800.0,50.0,33.0,10,False,2,down,0.16666666666666666,16,0.17258420000143815,0.30751350001082756,0.4800977000122657,0.6667039999883855,True,near-160,15,2,1,1.25,1,down,8,0
105,4,True,0.8406353000027593,800.0,50.0,33.0,15,False,2,down,0.16666666666666666,12,0.25670940001145937,0.2497940000030212,0.5065034000144806,0.4764783999999054,True,near-240,15,7,4,4.375,1,down,8,0
106,1,True,1.4385363000037614,800.0,50.0,33.0,0,False,2,up,0.16666666666666666,20,0,0.36479099999996834,0.36479099999996834,1.2845302000059746,False,near-000,16,7,3,4.375,1,up,4,0
107,2,True,0.9916641000017989,800.0,50.0,33.0,15,False,2,down,0.16666666666666666,12,0.2621408000122756,0.24230379999789875,0.5044446000101743,0.5379811000020709,True,near-240,16,8,5,5.0,1,down,8,0
108,2,True,0.8301112999906763,800.0,50.0,33.0,5,False,2,down,0.16666666666666666,28,0.09234820000710897,0.502329800001462,0.594678000008571,0.5466460000025108,False,near-080,16,6,4,3.75,1,down,8,0
109,4,True,0.7761417999863625,800.0,50.0,33.0,10,False,2,down,0.16666666666666666,16,0.19418730000325013,0.33285399999294896,0.5270412999961991,0.5017196999979205,True,near-160,16,3,2,1.875,1,down,8,0
110,1,True,1.5033044000010705,800.0,800.0,50.0,0,False,0,down,0.16666666666666666,4,0,0.09132069999759551,0.09132069999759551,1.252732000008109,True,near-rndm,16,3,3,1.875,2,down,2,0
111,4,True,0.8087949999899138,800.0,100.0,50.0,0,False,1,down,0.16666666666666666,16,0,0.3124320000060834,0.3124320000060834,0.6282331999973394,True,near-rnd2,16,5,4,3.125,1,down,8,0
112,1,True,1.0592076999892015,800.0,33.0,50.0,0,False,3,down,0.16666666666666666,28,0,0.4684352000040235,0.4684352000040235,0.6308267999993404,True,near-rnd3,16,3,2,1.875,1,down,8,0
113,2,True,1.6292764999961946,800.0,50.0,33.0,15,False,2,down,0.16666666666666666,12,0.2558924000040861,0.24246819999825675,0.49836060000234284,0.9482195000018692,False,near-240,17,9,5,5.625,1,down,8,1
114,1,True,1.2858353000046918,800.0,50.0,33.0,10,False,2,down,0.16666666666666666,16,0.1688307000003988,0.296793899993645,0.4656245999940438,0.7805293999990681,False,near-160,17,4,2,2.5,1,down,8,0
115,2,True,0.9371143000025768,800.0,33.0,50.0,0,False,3,down,0.16666666666666666,28,0,0.6632010000030277,0.6632010000030277,1.1813949000061257,False,near-rnd3,17,4,2,2.5,1,down,8,0
116,2,True,1.2898101000027964,800.0,50.0,33.0,5,False,2,down,0.16666666666666666,28,0.09619660000316799,0.4970794999971986,0.5932761000003666,0.5505646999954479,True,near-080,17,7,5,4.375,1,down,8,0
117,3,True,0.9314066000079038,800.0,50.0,33.0,0,False,2,up,0.16666666666666666,24,0,0.44085569999879226,0.44085569999879226,0.8499526999949012,True,near-000,17,1,1,0.625,1,up,4,0
118,2,True,1.9940677999984473,800.0,100.0,50.0,0,False,1,down,0.16666666666666666,16,0,0.2997017000016058,0.2997017000016058,1.0587175999971805,False,near-rnd2,17,6,4,3.75,1,down,8,0
119,1,True,1.2663821000023745,800.0,800.0,50.0,0,False,0,down,0.16666666666666666,4,0,0.08620649999647867,0.08620649999647867,0.8679433000070276,True,near-rndm,17,4,4,2.5,2,down,2,0
120,2,True,1.1788491000042995,800.0,50.0,33.0,0,False,2,up,0.16666666666666666,24,0,0.43323249999957625,0.43323249999957625,1.7054365999938454,True,near-000,18,2,2,1.25,1,up,4,0
121,1,True,1.2417683999956353,800.0,50.0,33.0,10,False,2,down,0.16666666666666666,16,0.17088370000419673,0.29333840000617784,0.46422210001037456,0.6610991999914404,False,near-160,18,5,2,3.125,1,down,8,0
122,2,True,1.2394891000003554,800.0,800.0,50.0,0,False,0,down,0.16666666666666666,4,0,0.09963240000070073,0.09963240000070073,4.110085699998308,False,near-rndm,18,5,4,3.125,2,down,2,0
123,2,True,0.7176418000017293,800.0,50.0,33.0,15,False,2,down,0.16666666666666666,12,0.2558031999942614,0.24016810000466648,0.49597129999892786,0.5459962000022642,True,near-240,18,10,6,6.25,1,down,8,1
124,3,True,1.405054500006372,800.0,50.0,33.0,5,False,2,down,0.16666666666666666,28,0.09657039999729022,0.5047664999874542,0.6013368999847444,0.9007994999992661,False,near-080,18,8,5,5.0,1,down,8,0
125,4,True,0.7644659000070533,800.0,33.0,50.0,0,False,3,down,0.16666666666666666,28,0,0.4938356000056956,0.4938356000056956,1.0078134999930626,False,near-rnd3,18,5,2,3.125,1,down,8,0
126,2,True,0.8134222999942722,800.0,100.0,50.0,0,False,1,down,0.16666666666666666,16,0,0.30564310000045225,0.30564310000045225,1.2551817999919876,False,near-rnd2,18,7,4,4.375,1,down,8,0
127,2,True,1.1970781999989413,800.0,800.0,50.0,0,False,0,down,0.16666666666666666,4,0,0.10811070000636391,0.10811070000636391,0.7646532000071602,True,near-rndm,19,6,5,3.75,2,down,2,0
128,3,True,1.1924844000022858,800.0,50.0,33.0,10,False,2,up,0.16666666666666666,24,0.18065979999664705,0.48519009999290574,0.6658498999895528,0.589546800008975,True,near-160,19,1,1,0.625,1,up,4,0
129,1,True,0.9883598000014899,800.0,50.0,33.0,5,False,2,down,0.16666666666666666,28,0.09087440000439528,0.48331180000968743,0.5741862000140827,0.9820570999872871,True,near-080,19,9,6,5.625,1,down,8,1
130,1,True,1.0012820999982068,800.0,100.0,50.0,0,False,1,down,0.16666666666666666,16,0,0.29820140000083484,0.29820140000083484,1.357595699999365,False,near-rnd2,19,8,4,5.0,1,down,8,0
131,2,True,0.8925087999959942,800.0,50.0,33.0,15,False,2,down,0.16666666666666666,12,0.2519400000019232,0.24213240000244696,0.49407240000437014,0.5281786999985343,True,near-240,19,11,7,6.875,1,down,8,1
132,4,True,0.6718529000063427,800.0,33.0,50.0,0,False,3,up,0.16666666666666666,36,0,0.6251571000029799,0.6251571000029799,0.37064430001191795,True,near-rnd3,19,1,1,0.625,1,up,4,0
133,2,True,0.8830651999887777,800.0,50.0,33.0,0,False,2,up,0.16666666666666666,24,0,0.4297757000022102,0.4297757000022102,0.6237840999965556,True,near-000,19,3,3,1.875,1,up,4,0
134,1,True,1.1310320000047795,800.0,100.0,50.0,0,False,1,down,0.16666666666666666,16,0,0.2955065999994986,0.2955065999994986,0.9511752999969758,False,near-rnd2,20,9,4,5.625,1,down,8,1
135,1,True,1.530480000001262,800.0,50.0,33.0,5,False,2,down,0.16666666666666666,28,0.08958830000483431,0.4927204999985406,0.5823088000033749,0.5674312000046484,True,near-080,20,10,7,6.25,1,down,8,1
136,1,True,1.3276075999892782,800.0,33.0,50.0,0,False,3,up,0.16666666666666666,36,0,0.5955041000124766,0.5955041000124766,0.9255371999897761,True,near-rnd3,20,2,2,1.25,1,up,4,0
137,3,True,1.3338308999955188,800.0,50.0,33.0,0,False,2,down,0.16666666666666666,20,0,0.36893650000274647,0.36893650000274647,0.6173417999962112,False,near-000,20,1,0,0.625,1,down,2,0
138,1,True,1.0521876999991946,800.0,800.0,50.0,0,False,0,down,0.16666666666666666,4,0,0.08766799999284558,0.08766799999284558,0.8127386999985902,True,near-rndm,20,7,6,4.375,2,down,2,0
139,1,True,1.943593999996665,800.0,50.0,33.0,15,False,2,down,0.16666666666666666,12,0.24782750000304077,0.2373890000017127,0.48521650000475347,0.6867764000053285,False,near-240,20,12,7,7.5,1,down,8,1
140,1,True,1.3568086000013864,800.0,50.0,33.0,10,False,2,up,0.16666666666666666,24,0.1701867000083439,0.4290054000011878,0.5991921000095317,0.4165643000014825,True,near-160,20,2,2,1.25,1,up,4,0
141,4,True,0.8281147999950917,800.0,800.0,50.0,0,False,0,down,0.16666666666666666,4,0,0.11942969998926856,0.11942969998926856,1.1024844000057783,True,near-rndm,21,8,7,5.0,2,down,2,0
142,2,True,1.013470400008373,800.0,33.0,50.0,0,False,3,up,0.16666666666666666,36,0,0.7538561999972444,0.7538561999972444,0.5321812000038335,False,near-rnd3,21,3,2,1.875,1,up,4,0
143,2,True,0.8330005999887362,800.0,50.0,33.0,10,False,2,up,0.16666666666666666,24,0.17860359999758657,0.43637199999648146,0.614975599994068,0.5231771999970078,True,near-160,21,3,3,1.875,1,up,4,0
144,1,True,1.1427767999994103,800.0,100.0,50.0,0,False,1,up,0.16666666666666666,20,0,0.36226739999256097,0.36226739999256097,1.0703034000034677,False,near-rnd2,21,1,0,0.625,1,up,2,0
145,1,True,2.171848800004227,800.0,50.0,33.0,15,False,2,down,0.16666666666666666,12,0.24865810001210775,0.23067859999719076,0.4793367000092985,0.7479829999938374,True,near-240,21,13,8,8.125,1,down,8,1
146,3,True,0.7878300000011222,800.0,50.0,33.0,5,False,2,down,0.16666666666666666,28,0.10465519998979289,0.5124859999923501,0.617141199982143,0.6144643000006909,True,near-080,21,11,8,6.875,1,down,8,1
147,2,True,0.7688163999991957,800.0,50.0,33.0,0,False,2,down,0.16666666666666666,20,0,0.36723910000000615,0.36723910000000615,1.1442390000011073,True,near-000,21,2,1,1.25,2,down,2,0
148,1,True,1.2728821000055177,800.0,50.0,33.0,5,False,2,down,0.16666666666666666,24,0.09334389999276027,0.42428590000781696,0.5176298000005772,0.44385190001048613,True,near-080,22,1,1,0.625,1,down,4,0
149,2,True,0.9761599000048591,800.0,50.0,33.0,15,False,2,down,0.16666666666666666,12,0.2562403999909293,0.24007220000203233,0.4963125999929616,1.4611501000035787,True,near-240,22,14,9,8.75,1,down,8,1
150,1,True,1.4371825999987777,800.0,50.0,33.0,0,False,2,down,0.16666666666666666,20,0,0.35481279999658,0.35481279999658,1.5120478999888292,True,near-000,22,3,2,1.875,2,down,2,0
151,2,True,0.8582662000117125,800.0,800.0,50.0,0,False,0,down,0.16666666666666666,4,0,0.10300190000270959,0.10300190000270959,0.7333972999913385,True,near-rndm,22,9,8,5.625,2,down,2,1
152,1,True,0.8239868999953615,800.0,100.0,50.0,0,False,1,up,0.16666666666666666,20,0,0.3638024999963818,0.3638024999963818,1.0404195999872172,False,near-rnd2,22,2,0,1.25,2,up,2,0
153,2,True,1.3287159999890719,800.0,50.0,33.0,10,False,2,down,0.16666666666666666,20,0.17520260000310373,0.3754832999984501,0.5506859000015538,1.7581643000012264,True,near-160,22,1,1,0.625,1,down,2,0
154,2,True,0.9734893999993801,800.0,33.0,50.0,0,False,3,up,0.16666666666666666,36,0,0.6103719999955501,0.6103719999955501,0.902331299992511,False,near-rnd3,22,4,2,2.5,1,up,4,0
155,1,True,1.1969935999950394,800.0,50.0,33.0,5,False,2,down,0.16666666666666666,24,0.09314540000923444,0.43206030000874307,0.5252057000179775,0.38681650000216905,True,near-080,23,2,2,1.25,1,down,4,0
156,2,True,0.7510024000075646,800.0,800.0,50.0,0,False,0,down,0.16666666666666666,3,0,0.08657200000016019,0.08657200000016019,1.241456100004143,False,near-rndm,23,1,0,0.625,2,down,1,0
157,2,True,1.599095199999283,800.0,50.0,33.0,10,False,2,down,0.16666666666666666,20,0.17962169999373145,0.37169830000493675,0.5513199999986682,0.467909500002861,True,near-160,23,2,2,1.25,2,down,2,0
158,3,True,1.210855500001344,800.0,100.0,50.0,0,False,1,up,0.16666666666666666,20,0,0.5271459999930812,0.5271459999930812,0.4238539999932982,True,near-rnd2,23,3,1,1.875,2,up,2,0
159,1,True,1.461915299994871,800.0,33.0,50.0,0,False,3,up,0.16666666666666666,36,0,0.5933196000114549,0.5933196000114549,1.0513885999971535,True,near-rnd3,23,5,3,3.125,1,up,4,0
160,3,True,0.8977854999975534,800.0,50.0,33.0,0,False,2,down,0.16666666666666666,20,0,0.37717770000745077,0.37717770000745077,0.8394255000021076,False,near-000,23,4,2,2.5,2,down,2,0
161,2,True,1.392849900003057,800.0,50.0,33.0,15,False,2,down,0.16666666666666666,12,0.2548575999971945,0.24593900000036228,0.5007965999975568,0.701022399996873,True,near-240,23,15,10,9.375,1,down,8,1
162,1,True,1.1322676999989199,800.0,100.0,50.0,0,False,1,up,0.16666666666666666,20,0,0.36435690001235344,0.36435690001235344,0.8332500999968033,True,near-rnd2,24,4,2,2.5,2,up,2,0
163,1,True,0.8922562000079779,800.0,50.0,33.0,10,False,2,down,0.16666666666666666,20,0.172045999992406,0.36350669999956153,0.5355526999919675,0.5126177000056487,True,near-160,24,3,3,1.875,2,down,2,0
164,1,True,0.9822332000039751,800.0,33.0,50.0,0,False,3,up,0.16666666666666666,36,0,0.5978919000044698,0.5978919000044698,0.8352207999996608,True,near-rnd3,24,6,4,3.75,1,up,4,0
165,2,True,1.2660774999967543,800.0,50.0,33.0,15,False,2,down,0.16666666666666666,12,0.25159899999562185,0.2515947000065353,0.5031937000021571,0.7172584000072675,True,near-240,24,16,11,10.0,1,down,8,1
166,2,True,0.8498082000005525,800.0,50.0,33.0,5,False,2,down,0.16666666666666666,24,0.09228040000016335,0.4365603999904124,0.5288407999905758,0.6423119000100996,False,near-080,24,3,2,1.875,1,down,4,0
167,3,True,1.2955796000023838,800.0,800.0,50.0,0,False,0,down,0.16666666666666666,3,0,0.08539140000357293,0.08539140000357293,1.1831321999925422,False,near-rndm,24,2,0,1.25,2,down,1,0
168,2,True,0.9379724000027636,800.0,50.0,33.0,0,False,2,down,0.16666666666666666,20,0,0.3704358999966644,0.3704358999966644,0.6528255000011995,True,near-000,24,5,3,3.125,2,down,2,0
169,3,True,1.0529722000064794,800.0,50.0,33.0,5,False,2,down,0.16666666666666666,24,0.09678239999630023,0.43762510000669863,0.5344075000029989,0.5313916999875801,False,near-080,25,4,2,2.5,1,down,4,0
170,2,True,1.0246731000079308,800.0,50.0,33.0,0,False,2,down,0.16666666666666666,20,0,0.36845809999795165,0.36845809999795165,0.8090162000007695,False,near-000,25,6,3,3.75,2,down,2,0
171,3,True,0.9976739999983693,800.0,800.0,50.0,0,False,0,down,0.16666666666666666,3,0,0.10018689998832997,0.10018689998832997,0.7233565999922575,True,near-rndm,25,3,1,1.875,2,down,1,0
172,3,True,1.0182398000033572,800.0,33.0,50.0,0,False,3,up,0.16666666666666666,36,0,0.6208550000010291,0.6208550000010291,0.4951257000066107,True,near-rnd3,25,7,5,4.375,1,up,4,0
173,3,True,0.7708039999997709,800.0,50.0,33.0,10,False,2,down,0.16666666666666666,20,0.18019810000259895,0.3843321000022115,0.5645302000048105,0.40846249999594875,True,near-160,25,4,4,2.5,2,down,2,0
174,4,True,0.8707407000038074,800.0,50.0,33.0,15,False,2,down,0.16666666666666666,12,0.25865999999223277,0.2794352000055369,0.5380951999977697,0.48984129999007564,True,near-240,25,17,12,10.625,1,down,8,2
175,3,True,1.0251890000072308,800.0,100.0,50.0,0,False,1,up,0.16666666666666666,20,0,0.38290469998901244,0.38290469998901244,0.9974953999917489,True,near-rnd2,25,5,3,3.125,2,up,2,0
176,2,True,1.3705493999877945,800.0,800.0,50.0,0,False,0,down,0.16666666666666666,3,0,0.15092420000291895,0.15092420000291895,1.2564036999974633,True,near-rndm,26,4,2,2.5,2,down,1,0
177,1,True,0.8180224999960046,800.0,50.0,33.0,5,False,2,down,0.16666666666666666,24,0.08968100001220591,0.43303270000615157,0.5227137000183575,0.6077229000075022,True,near-080,26,5,3,3.125,1,down,4,0
178,2,True,0.9215402999980142,800.0,50.0,33.0,15,False,2,down,0.16666666666666666,10,0.25516719999723136,0.21331580000696704,0.4684830000041984,0.8332587000040803,False,near-240,26,1,0,0.625,1,down,2,0
179,3,True,0.7494218000065302,800.0,100.0,50.0,0,False,1,up,0.16666666666666666,20,0,0.3839480000024196,0.3839480000024196,0.5468245999945793,True,near-rnd2,26,6,4,3.75,2,up,2,0
180,1,True,1.8634190000011586,800.0,33.0,50.0,0,False,3,up,0.16666666666666666,36,0,0.5998302000080002,0.5998302000080002,0.7006212999986019,True,near-rnd3,26,8,6,5.0,1,up,4,0
181,2,True,0.9121831999946153,800.0,50.0,33.0,0,False,2,down,0.16666666666666666,20,0,0.3677053999999771,0.3677053999999771,0.5560143000038806,True,near-000,26,7,4,4.375,2,down,2,0
182,3,True,0.7959880999987945,800.0,50.0,33.0,10,False,2,down,0.16666666666666666,20,0.18499039999733213,0.3790737999952398,0.564064199992572,0.4540335000056075,True,near-160,26,5,5,3.125,2,down,2,0
183,1,True,1.3840675999963423,800.0,50.0,33.0,5,False,2,down,0.16666666666666666,24,0.09306239998841193,0.432438199990429,0.5255005999788409,0.48679969999648165,True,near-080,27,6,4,3.75,1,down,4,0
184,2,True,0.9493119999970077,800.0,100.0,50.0,0,False,1,up,0.16666666666666666,20,0,0.36882709999918006,0.36882709999918006,0.5330814999906579,True,near-rnd2,27,7,5,4.375,2,up,2,0
185,1,True,0.8478247000020929,800.0,800.0,50.0,0,False,0,down,0.16666666666666666,3,0,0.07510859999456443,0.07510859999456443,1.0879801999981282,False,near-rndm,27,5,2,3.125,2,down,1,0
186,1,True,0.6616227999911644,800.0,33.0,50.0,0,False,3,up,0.16666666666666666,36,0,0.5947031999967294,0.5947031999967294,0.5510189000051469,True,near-rnd3,27,9,7,5.625,1,up,4,1
187,2,True,0.9499414000019897,800.0,50.0,33.0,15,False,2,down,0.16666666666666666,10,0.2521902000007685,0.21555729999090545,0.467747499991674,0.569155299992417,True,near-240,27,2,1,1.25,2,down,2,0
188,3,True,0.7739475999987917,800.0,50.0,33.0,10,False,2,down,0.16666666666666666,20,0.18222309999691788,0.3758110999915516,0.5580341999884695,0.28543609999178443,True,near-160,27,6,6,3.75,2,down,2,0
189,1,True,1.0630700000037905,800.0,50.0,33.0,0,False,2,down,0.16666666666666666,20,0,0.362888199990266,0.362888199990266,1.0223961000010604,True,near-000,27,8,5,5.0,2,down,2,0
190,4,True,1.7405449999932898,800.0,33.0,50.0,0,False,3,down,0.16666666666666666,34,0,0.5944478000019444,0.5944478000019444,0.5238584000035189,True,near-rnd3,28,1,1,0.625,1,down,1,0
191,1,True,1.214906900000642,800.0,50.0,33.0,5,False,2,down,0.16666666666666666,24,0.08944350000820123,0.42777270000078715,0.5172162000089884,0.6880874000053154,True,near-080,28,7,5,4.375,1,down,4,0
192,1,True,1.312260000006063,800.0,50.0,33.0,15,False,2,down,0.16666666666666666,10,0.2482733999931952,0.20515759999398142,0.4534309999871766,0.9112606999988202,True,near-240,28,3,2,1.875,2,down,2,0
193,2,True,0.8535539000004064,800.0,100.0,50.0,0,False,1,up,0.16666666666666666,20,0,0.4869844000058947,0.4869844000058947,0.4208822000073269,True,near-rnd2,28,8,6,5.0,2,up,2,0
194,1,True,2.077773900004104,800.0,800.0,50.0,0,False,0,down,0.16666666666666666,3,0,0.07517110000480898,0.07517110000480898,0.9830657999991672,False,near-rndm,28,6,2,3.75,2,down,1,0
195,2,True,0.8294102999934694,800.0,50.0,33.0,10,False,2,down,0.16666666666666666,18,0.17735610000090674,0.3321485000051325,0.5095046000060393,0.7086533999972744,True,near-160,28,1,1,0.625,2,down,2,0
196,2,True,0.8857606000092346,800.0,50.0,33.0,0,False,2,down,0.16666666666666666,20,0,0.3687360999902012,0.3687360999902012,0.8465456999983871,False,near-000,28,9,5,5.625,2,down,2,1
197,1,True,1.5635473000002094,800.0,50.0,33.0,5,False,2,down,0.16666666666666666,24,0.08653250000497792,0.42513429999235086,0.5116667999973288,0.43056500000238884,True,near-080,29,8,6,5.0,1,down,4,0
198,3,True,0.915268600001582,800.0,50.0,33.0,0,False,2,down,0.16666666666666666,20,0,0.3754569000011543,0.3754569000011543,0.707921900000656,False,near-000,29,10,5,6.25,2,down,2,1
199,3,True,0.6996215999970445,800.0,50.0,33.0,10,False,2,down,0.16666666666666666,18,0.17537379999703262,0.3571936999942409,0.5325674999912735,0.4132892999914475,True,near-160,29,2,2,1.25,2,down,2,0
200,1,True,1.2750342999934219,800.0,50.0,33.0,15,False,2,down,0.16666666666666666,10,0.2515620000049239,0.20134879999386612,0.45291079999879,0.7461842000047909,False,near-240,29,4,2,2.5,2,down,2,0
201,1,True,0.8122737999947276,800.0,800.0,50.0,0,False,0,down,0.16666666666666666,3,0,0.07392789999721572,0.07392789999721572,0.8861425000068266,True,near-rndm,29,7,3,4.375,2,down,1,0
202,2,True,0.9460281000065152,800.0,100.0,50.0,0,False,1,up,0.16666666666666666,20,0,0.3683049000101164,0.3683049000101164,0.5313847000070382,True,near-rnd2,29,9,7,5.625,2,up,2,1
203,1,True,1.2044567999982974,800.0,33.0,50.0,0,False,3,down,0.16666666666666666,34,0,0.5672975000052247,0.5672975000052247,0.5858060000027763,False,near-rnd3,29,2,1,1.25,2,down,1,0
204,1,True,0.941306299995631,800.0,800.0,50.0,0,False,0,down,0.16666666666666666,3,0,0.15520540000579786,0.15520540000579786,0.7255592000001343,True,near-rndm,30,8,4,5.0,2,down,1,0
205,4,True,1.8887135999975726,800.0,50.0,33.0,10,False,2,down,0.16666666666666666,18,0.18067879999580327,0.3699278999993112,0.5506066999951145,0.37223370000720024,True,near-160,30,3,3,1.875,2,down,2,0
206,1,True,1.2721087999962037,800.0,33.0,50.0,0,False,3,down,0.16666666666666666,34,0,0.5697305999929085,0.5697305999929085,0.4343458999937866,True,near-rnd3,30,3,2,1.875,2,down,1,0
207,1,True,0.8295660000003409,800.0,100.0,50.0,0,False,1,up,0.16666666666666666,20,0,0.3636616000003414,0.3636616000003414,1.8710883000021568,False,near-rnd2,30,10,7,6.25,2,up,2,1
208,1,True,2.0868465999956243,800.0,50.0,33.0,15,False,2,down,0.16666666666666666,10,0.2542831000027945,0.20360290000098757,0.4578860000037821,0.5033890000049723,True,near-240,30,5,3,3.125,2,down,2,0
209,5,True,1.4993762999947648,800.0,50.0,33.0,0,False,2,down,0.16666666666666666,20,0,0.397024899997632,0.397024899997632,0.6104208000033395,True,near-000,30,11,6,6.875,2,down,2,1
210,1,True,1.8334516000031726,800.0,50.0,33.0,5,False,2,down,0.16666666666666666,24,0.08972190000349656,0.4285270000109449,0.5182489000144415,0.4793346999940695,True,near-080,30,9,7,5.625,1,down,4,1
211,1,True,1.0506600999942748,800.0,33.0,50.0,0,False,3,down,0.16666666666666666,34,0,0.5671848000056343,0.5671848000056343,1.8415234999993118,True,near-rnd3,31,4,3,2.5,2,down,1,0
212,4,True,1.3343411999958334,800.0,50.0,33.0,0,False,2,down,0.16666666666666666,20,0,0.3893419999949401,0.3893419999949401,0.6526700000104029,True,near-000,31,12,7,7.5,2,down,2,1
213,4,True,0.8472971000010148,800.0,50.0,33.0,5,False,2,down,0.16666666666666666,22,0.11130580000462942,0.4368992000090657,0.5482050000136951,0.6180227000004379,True,near-080,31,1,1,0.625,1,down,2,0
214,3,True,1.1933148999960395,800.0,100.0,50.0,0,False,1,up,0.16666666666666666,20,0,0.3752311999996891,0.3752311999996891,1.573641499999212,True,near-rnd2,31,11,8,6.875,2,up,2,1
215,3,True,1.0169779999996535,800.0,800.0,50.0,0,False,0,down,0.16666666666666666,3,0,0.08933430000615772,0.08933430000615772,0.9584340000001248,False,near-rndm,31,9,4,5.625,2,down,1,1
216,1,True,1.0971329000021797,800.0,50.0,33.0,10,False,2,down,0.16666666666666666,18,0.1683513000025414,0.3286305999936303,0.4969818999961717,0.5316604999970878,True,near-160,31,4,4,2.5,2,down,2,0
217,2,True,1.1300959000072908,800.0,50.0,33.0,15,False,2,down,0.16666666666666666,10,0.25896810000995174,0.21256350001203828,0.47153160002199,0.6861250000074506,True,near-240,31,6,4,3.75,2,down,2,0
218,1,True,1.0641978999919957,800.0,100.0,50.0,0,False,1,up,0.16666666666666666,20,0,0.36058549999142997,0.36058549999142997,0.8896439999953145,True,near-rnd2,32,12,9,7.5,2,up,2,1
219,3,True,0.8881441999983508,800.0,800.0,50.0,0,False,0,down,0.16666666666666666,3,0,0.09652530000312254,0.09652530000312254,0.7372308999911183,True,near-rndm,32,10,5,6.25,2,down,1,1
220,3,True,1.4164584999962244,800.0,50.0,33.0,5,False,2,down,0.16666666666666666,22,0.10057420001248829,0.40988520000246353,0.5104594000149518,0.41715490000206046,True,near-080,32,2,2,1.25,2,down,2,0
221,1,True,1.024022600002354,800.0,50.0,33.0,15,False,2,down,0.16666666666666666,10,0.2492643000005046,0.20373239999753423,0.4529966999980388,1.0760215000045719,False,near-240,32,7,4,4.375,2,down,2,0
222,1,True,0.9622874000051524,800.0,50.0,33.0,0,False,2,down,0.16666666666666666,20,0,0.3552318000001833,0.3552318000001833,0.49805239999841433,True,near-000,32,13,8,8.125,2,down,2,1
223,3,True,1.009080300005735,800.0,50.0,33.0,10,False,2,down,0.16666666666666666,18,0.17859380001027603,0.3436149000044679,0.522208700014744,0.8404280000104336,True,near-160,32,5,5,3.125,2,down,2,0
224,1,True,1.1638826999987941,800.0,33.0,50.0,0,False,3,down,0.16666666666666666,34,0,0.5683030999934999,0.5683030999934999,0.49455079999461304,True,near-rnd3,32,5,4,3.125,2,down,1,0
225,1,True,0.9716072000010172,800.0,50.0,33.0,15,False,2,down,0.16666666666666666,10,0.25517479999689385,0.20281689999683294,0.4579916999937268,0.48731799999950454,True,near-240,33,8,5,5.0,2,down,2,0
226,2,True,0.8029769999993732,800.0,50.0,33.0,5,False,2,down,0.16666666666666666,22,0.1003420999913942,0.3994862999970792,0.4998283999884734,0.5221813999960432,True,near-080,33,3,3,1.875,2,down,2,0
227,3,True,1.0123560999927577,800.0,33.0,50.0,0,False,3,down,0.16666666666666666,34,0,0.5806501999904867,0.5806501999904867,0.5699233000050299,True,near-rnd3,33,6,5,3.75,2,down,1,0
228,2,True,0.9090378999972017,800.0,800.0,50.0,0,False,0,down,0.16666666666666666,3,0,0.08508939998864662,0.08508939998864662,1.3527413999981945,False,near-rndm,33,11,5,6.875,2,down,1,1
229,2,True,0.959324999988894,800.0,50.0,33.0,0,False,2,down,0.16666666666666666,20,0,0.37287920000380836,0.37287920000380836,0.6365275999996811,True,near-000,33,14,9,8.75,2,down,2,1
230,2,True,1.039711300007184,800.0,100.0,50.0,0,False,1,up,0.16666666666666666,20,0,0.36186169998836704,0.36186169998836704,0.7318726999947103,True,near-rnd2,33,13,10,8.125,2,up,2,1
231,4,True,0.9106366000050912,800.0,50.0,33.0,10,False,2,down,0.16666666666666666,18,0.17934190000232775,0.35184029999072663,0.5311821999930544,0.37271130000590347,True,near-160,33,6,6,3.75,2,down,2,0
232,4,True,0.7872137999947881,800.0,33.0,50.0,0,False,3,down,0.16666666666666666,34,0,0.5829852000024403,0.5829852000024403,0.746413400003803,True,near-rnd3,34,7,6,4.375,2,down,1,0
233,1,True,1.3867748000047868,800.0,50.0,33.0,0,False,2,down,0.16666666666666666,20,0,0.3604975999915041,0.3604975999915041,0.5214336000062758,True,near-000,34,15,10,9.375,2,down,2,1
234,1,True,0.957745599996997,800.0,50.0,33.0,10,False,2,down,0.16666666666666666,16,0.16729760001180694,0.2923841000010725,0.45968170001287945,0.5974751000030665,True,near-160,34,1,1,0.625,2,down,2,0
235,2,True,1.5486048999882769,800.0,50.0,33.0,15,False,2,down,0.16666666666666666,10,0.24907080001139548,0.21346999998786487,0.46254079999926034,0.4384466000046814,True,near-240,34,9,6,5.625,2,down,2,1
236,3,True,1.0256494999921415,800.0,100.0,50.0,0,False,1,up,0.16666666666666666,20,0,0.3764843999961158,0.3764843999961158,0.5639598999987356,True,near-rnd2,34,14,11,8.75,2,up,2,1
237,2,True,0.9052187000052072,800.0,800.0,50.0,0,False,0,down,0.16666666666666666,3,0,0.09085449999838602,0.09085449999838602,0.8492209999967599,True,near-rndm,34,12,6,7.5,2,down,1,1
238,2,True,0.8382210999989184,800.0,50.0,33.0,5,False,2,down,0.16666666666666666,22,0.09574580000480637,0.39462669999920763,0.490372500004014,1.0971645999961765,False,near-080,34,4,3,2.5,2,down,2,0
239,3,True,0.7508535999950254,800.0,33.0,50.0,0,False,3,down,0.16666666666666666,34,0,0.5899642000003951,0.5899642000003951,0.38958990000537597,True,near-rnd3,35,8,7,5.0,2,down,1,0
240,4,True,0.8603990999981761,800.0,50.0,33.0,0,False,2,down,0.16666666666666666,20,0,0.3882701999973506,0.3882701999973506,0.5087056000047596,True,near-000,35,16,11,10.0,2,down,2,1
241,3,True,0.9054497000033734,800.0,50.0,33.0,10,False,2,down,0.16666666666666666,16,0.18447120000200812,0.312943400000222,0.49741460000223015,0.4356615999859059,True,near-160,35,2,2,1.25,2,down,2,0
242,1,True,0.7875426999962656,800.0,50.0,33.0,15,False,2,down,0.16666666666666666,10,0.24586830000043847,0.2043578000011621,0.45022610000160057,0.46229380001022946,True,near-240,35,10,7,6.25,2,down,2,1
243,3,True,0.8596298000047682,800.0,100.0,50.0,0,False,1,down,0.16666666666666666,19,0,0.3573261999990791,0.3573261999990791,0.5447641999926418,True,near-rnd2,35,1,1,0.625,2,down,1,0
244,2,True,1.0463304000004428,800.0,800.0,50.0,0,False,0,down,0.16666666666666666,3,0,0.09077270000125282,0.09077270000125282,2.1184868999989703,False,near-rndm,35,13,6,8.125,2,down,1,1
245,2,True,0.7047736999957124,800.0,50.0,33.0,5,False,2,down,0.16666666666666666,22,0.09637109999312088,0.40744870000344235,0.5038197999965632,0.4862806000019191,True,near-080,35,5,4,3.125,2,down,2,0
246,3,True,1.6060857999982545,800.0,50.0,33.0,0,False,2,down,0.16666666666666666,20,0,0.47270830000343267,0.47270830000343267,0.4455024000053527,True,near-000,36,17,12,10.625,2,down,2,2
247,3,True,1.0500394999980927,800.0,50.0,33.0,5,False,2,down,0.16666666666666666,22,0.09595099999569356,0.41134799999417737,0.5072989999898709,0.6964888000075007,False,near-080,36,6,4,3.75,2,down,2,0
248,1,True,1.1256139000033727,800.0,33.0,50.0,0,False,3,down,0.16666666666666666,34,0,0.564549699993222,0.564549699993222,0.7939975999906892,False,near-rnd3,36,9,7,5.625,2,down,1,1
249,1,True,1.1014598999900045,800.0,50.0,33.0,10,False,2,down,0.16666666666666666,16,0.1669415999931516,0.2885136999975657,0.4554552999907173,1.9277349000039976,True,near-160,36,3,3,1.875,2,down,2,0
250,4,True,1.20391440000094,800.0,50.0,33.0,15,False,2,down,0.16666666666666666,10,0.27100659999996424,0.2246199999935925,0.49562659999355674,0.4890439999871887,False,near-240,36,11,7,6.875,2,down,2,1
251,1,True,1.0868519999930868,800.0,100.0,50.0,0,False,1,down,0.16666666666666666,19,0,0.33824540000932757,0.33824540000932757,0.510701400009566,True,near-rnd2,36,2,2,1.25,3,down,1,0
252,3,True,1.4163769000006141,800.0,50.0,33.0,5,False,2,down,0.16666666666666666,22,0.10306069999933243,0.4061684000043897,0.5092291000037221,0.5321561000018846,True,near-080,37,7,5,4.375,2,down,2,0
253,3,True,1.0106193000101484,800.0,50.0,33.0,0,False,2,down,0.16666666666666666,20,0,0.3732655000058003,0.3732655000058003,0.9024161999986973,True,near-000,37,18,13,11.25,2,down,2,2
254,4,True,1.0974237000045832,800.0,33.0,50.0,0,False,3,down,0.16666666666666666,34,0,0.5908053000021027,0.5908053000021027,1.5160941999929491,True,near-rnd3,37,10,8,6.25,2,down,1,1
255,3,True,0.7726894999941578,800.0,50.0,33.0,10,False,2,down,0.16666666666666666,16,0.18644340000173543,0.3713621999922907,0.5578055999940261,0.3281626999960281,True,near-160,37,4,4,2.5,2,down,2,0
256,3,True,1.2170957000053022,800.0,50.0,33.0,15,False,2,down,0.16666666666666666,10,0.26017060001322534,0.2165653999982169,0.47673600001144223,1.5539702999958536,True,near-240,37,12,8,7.5,2,down,2,1
257,1,True,1.5067387000017334,800.0,100.0,50.0,0,False,1,down,0.16666666666666666,19,0,0.34257339999021497,0.34257339999021497,1.0105260999989696,True,near-rnd2,37,3,3,1.875,3,down,1,0
258,1,True,1.2147859999968205,800.0,50.0,33.0,5,False,2,down,0.16666666666666666,22,0.1744888999965042,0.3896597999992082,0.5641486999957124,0.6326651000126731,False,near-080,38,8,5,5.0,2,down,2,0
259,2,True,0.7306706000090344,800.0,33.0,50.0,0,False,3,down,0.16666666666666666,34,0,0.5695679999917047,0.5695679999917047,0.573573600006057,True,near-rnd3,38,11,9,6.875,2,down,1,1
260,1,True,1.2020649000041885,800.0,50.0,33.0,0,False,2,down,0.16666666666666666,20,0,0.362084499996854,0.362084499996854,1.918959899994661,False,near-000,38,19,13,11.875,2,down,2,2
261,1,True,1.30368610000005,800.0,100.0,50.0,0,False,1,down,0.16666666666666666,19,0,0.33895760000450537,0.33895760000450537,6.504891600008705,False,near-rnd2,38,4,3,2.5,3,down,1,0
262,3,True,0.882141900001443,800.0,50.0,33.0,15,False,2,down,0.16666666666666666,10,0.25448279999545775,0.21641900000395253,0.4709017999994103,2.3997929000033764,False,near-240,38,13,8,8.125,2,down,2,1
263,4,True,1.159613999989233,800.0,50.0,33.0,10,False,2,down,0.16666666666666666,16,0.1855020999937551,0.3354321000078926,0.5209342000016477,0.5796383999986574,True,near-160,38,5,5,3.125,2,down,2,0
264,3,True,1.1875719000090612,800.0,33.0,50.0,0,False,3,down,0.16666666666666666,33,0,0.5707313000020804,0.5707313000020804,0.7072971000015968,False,near-rnd3,39,1,0,0.625,2,down,1,0
265,2,True,0.6398179999960121,800.0,50.0,33.0,10,False,2,down,0.16666666666666666,16,0.1736949000041932,0.3012946999951964,0.4749895999993896,0.5116330000018934,False,near-160,39,6,5,3.75,2,down,2,0
266,1,True,1.0464452000014717,800.0,50.0,33.0,15,False,2,down,0.16666666666666666,10,0.24658679999993183,0.19991720000689384,0.44650400000682566,0.9578276999964146,True,near-240,39,14,9,8.75,2,down,2,1
267,2,True,0.8438112000003457,800.0,100.0,50.0,0,False,1,down,0.16666666666666666,19,0,0.36046120000537485,0.36046120000537485,0.5378632000065409,True,near-rnd2,39,5,4,3.125,3,down,1,0
268,1,True,0.9939435999986017,800.0,50.0,33.0,0,False,2,down,0.16666666666666666,20,0,0.3552753000112716,0.3552753000112716,0.5792704000050435,True,near-000,39,20,14,12.5,2,down,2,2
269,2,True,1.1404025999945588,800.0,50.0,33.0,5,False,2,down,0.16666666666666666,22,0.09312649999628775,0.583581899991259,0.6767083999875467,0.4397417000000132,True,near-080,39,9,6,5.625,2,down,2,1
270,4,True,1.2597663000051398,800.0,50.0,33.0,15,False,2,down,0.16666666666666666,10,0.2744421999959741,0.22596110000449698,0.5004033000004711,0.9157720999937737,False,near-240,40,15,9,9.375,2,down,2,1
271,2,True,1.5780053999915253,800.0,50.0,33.0,10,False,2,down,0.16666666666666666,16,0.17517670000961516,0.30786950000037905,0.4830462000099942,0.6019116999959806,True,near-160,40,7,6,4.375,2,down,2,0
272,1,True,1.4956345000100555,800.0,100.0,50.0,0,False,1,down,0.16666666666666666,19,0,0.34705070000200067,0.34705070000200067,1.4311593999882462,False,near-rnd2,40,6,4,3.75,3,down,1,0
273,2,True,0.8771536999993259,800.0,33.0,50.0,0,False,3,down,0.16666666666666666,33,0,0.5535925000003772,0.5535925000003772,1.0508417999953963,False,near-rnd3,40,2,0,1.25,3,down,1,0
274,2,True,0.8347701999882702,800.0,50.0,33.0,5,False,2,down,0.16666666666666666,22,0.10126020001189318,0.4056484000029741,0.5069086000148673,0.6885565999982646,True,near-080,40,10,7,6.25,2,down,2,1
275,1,True,1.099192999987281,800.0,50.0,33.0,0,False,2,down,0.16666666666666666,20,0,0.3558045999961905,0.3558045999961905,0.6132862999947974,True,near-000,40,21,15,13.125,2,down,2,2
276,1,True,0.9746606999979122,800.0,33.0,50.0,0,False,3,down,0.16666666666666666,33,0,0.5528303000028245,0.5528303000028245,47.22906549999607,True,near-rnd3,41,3,1,1.875,3,down,1,0
277,1,True,2.29960939999728,800.0,50.0,33.0,5,False,2,down,0.16666666666666666,22,0.09212529999786057,0.4008853999985149,0.4930106999963755,3.901072499997099,False,near-080,41,11,7,6.875,2,down,2,1
278,3,True,1.7553509999997914,800.0,50.0,33.0,0,False,2,down,0.16666666666666666,20,0,0.3805151999986265,0.3805151999986265,1.4075985999952536,False,near-000,41,22,15,13.75,2,down,2,2
279,2,True,0.82247020000068,800.0,100.0,50.0,0,False,1,down,0.16666666666666666,19,0,0.357180300008622,0.357180300008622,0.6548142999963602,True,near-rnd2,41,7,5,4.375,3,down,1,0
280,1,True,1.7423234000016237,800.0,50.0,33.0,15,False,2,down,0.16666666666666666,10,0.2528788999916287,0.20210869998845737,0.4549875999800861,5.3150254000065615,False,near-240,41,16,9,10.0,2,down,2,1
281,3,True,0.7877613000018755,800.0,50.0,33.0,10,False,2,down,0.16666666666666666,16,0.17816170000878628,0.318624000006821,0.4967857000156073,0.5841895999910776,True,near-160,41,8,7,5.0,2,down,2,0
282,1,True,1.337958100004471,800.0,33.0,50.0,0,False,3,down,0.16666666666666666,33,0,0.5508810000028461,0.5508810000028461,0.5798139999969862,True,near-rnd3,42,4,2,2.5,3,down,1,0
283,2,True,0.8344292999972822,800.0,100.0,50.0,0,False,1,down,0.16666666666666666,19,0,0.3608273999998346,0.3608273999998346,0.5781958000006853,True,near-rnd2,42,8,6,5.0,3,down,1,0
284,1,True,1.5165922000014689,800.0,50.0,33.0,15,False,2,down,0.16666666666666666,10,0.2810879000026034,0.19779669999843463,0.47888460000103805,1.066266399997403,True,near-240,42,17,10,10.625,2,down,2,2
285,3,True,2.532545800000662,800.0,50.0,33.0,5,False,2,down,0.16666666666666666,22,0.09692120000545401,0.41133189998799935,0.5082530999934534,0.6246107000042684,True,near-080,42,12,8,7.5,2,down,2,1
286,1,True,1.1332683999935398,800.0,50.0,33.0,10,False,2,down,0.16666666666666666,16,0.1705812000000151,0.3038494000065839,0.474430600006599,1.027868799996213,True,near-160,42,9,8,5.625,2,down,2,1
287,1,True,1.5258895000006305,800.0,50.0,33.0,0,False,2,down,0.16666666666666666,20,0,0.356941399993957,0.356941399993957,1.6447601999971084,False,near-000,42,23,15,14.375,2,down,2,2
288,2,True,1.0626539000077173,800.0,50.0,33.0,5,False,2,down,0.16666666666666666,22,0.09185769999749027,0.4060777000122471,0.49793540000973735,0.5131882999994559,True,near-080,43,13,9,8.125,2,down,2,1
289,2,True,0.8650748999934876,800.0,50.0,33.0,0,False,2,down,0.16666666666666666,20,0,0.4725731999933487,0.4725731999933487,0.5906985000037821,True,near-000,43,24,16,15.0,2,down,2,2
290,1,True,1.1539997000072617,800.0,50.0,33.0,10,False,2,down,0.16666666666666666,15,0.17522140000073705,0.2806030999927316,0.45582449999346863,0.4870139999984531,True,near-160,43,1,1,0.625,2,down,2,0
291,4,True,0.9102550999959931,800.0,50.0,33.0,15,False,2,down,0.16666666666666666,10,0.25762059999397025,0.23272290000750218,0.4903435000014724,0.8529437000106554,True,near-240,43,18,11,11.25,2,down,2,2
292,1,True,0.8272305999998935,800.0,33.0,50.0,0,False,3,down,0.16666666666666666,33,0,0.5490531999967061,0.5490531999967061,1.056770499999402,False,near-rnd3,43,5,2,3.125,3,down,1,0
293,1,True,1.0739408000081312,800.0,50.0,33.0,5,False,2,down,0.16666666666666666,22,0.09126739999919664,0.39795759999833535,0.489224999997532,0.4395288000087021,True,near-080,44,14,10,8.75,2,down,2,1
294,1,True,1.3519264000060502,800.0,50.0,33.0,15,False,2,down,0.16666666666666666,10,0.2517397999909008,0.20757300000695977,0.45931279999786057,0.5979227000061655,True,near-240,44,19,12,11.875,2,down,2,2
295,1,True,1.164186999987578,800.0,33.0,50.0,0,False,3,down,0.16666666666666666,33,0,0.5498591999930795,0.5498591999930795,7.057245100004366,False,near-rnd3,44,6,2,3.75,3,down,1,0
296,2,True,1.2493860999966273,800.0,50.0,33.0,10,False,2,down,0.16666666666666666,15,0.17798880000191275,0.29974390000279527,0.477732700004708,0.8672969000035664,False,near-160,44,2,1,1.25,2,down,2,0
297,2,True,1.1747451999981422,800.0,50.0,33.0,15,False,2,down,0.16666666666666666,10,0.2595162999932654,0.2159049000038067,0.4754211999970721,0.9755702999973437,True,near-240,45,20,13,12.5,2,down,2,2
298,2,True,1.1987497999944026,800.0,50.0,33.0,10,False,2,down,0.16666666666666666,15,0.17037779999373015,0.29170889999659266,0.4620866999903228,0.5135102000058396,True,near-160,45,3,2,1.875,2,down,2,0
299,1,True,0.9281937000050675,800.0,50.0,33.0,5,False,2,down,0.16666666666666666,22,0.0866641000029631,0.3990195000078529,0.485683600010816,0.501963100003195,True,near-080,45,15,11,9.375,2,down,2,1
300,4,True,0.8467823999963002,800.0,33.0,50.0,0,False,3,down,0.16666666666666666,33,0,0.5859185000008438,0.5859185000008438,0.7031534999987343,False,near-rnd3,45,7,2,4.375,3,down,1,0
301,1,True,0.9325546999898506,800.0,50.0,33.0,5,False,2,down,0.16666666666666666,22,0.09359009999025147,0.399037800001679,0.49262789999193046,0.6475596000091173,True,near-080,46,16,12,10.0,2,down,2,1
302,2,True,1.0504457999923034,800.0,33.0,50.0,0,False,3,down,0.16666666666666666,33,0,0.5592332999949576,0.5592332999949576,0.8646924000058789,False,near-rnd3,46,8,2,5.0,3,down,1,0
303,1,True,1.426726299992879,800.0,50.0,33.0,15,False,2,down,0.16666666666666666,10,0.3500361000042176,0.20188710000365973,0.5519232000078773,0.9581427999946754,True,near-240,46,21,14,13.125,2,down,2,2
304,2,True,1.2761379000003217,800.0,50.0,33.0,10,False,2,down,0.16666666666666666,15,0.18143620000046212,0.42291880000266246,0.6043550000031246,0.38269990000117105,True,near-160,46,4,3,2.5,2,down,2,0
305,1,True,1.0459033999941312,800.0,50.0,33.0,15,False,2,down,0.16666666666666666,10,0.25068630000168923,0.20114380000450183,0.45183010000619106,1.9936555000022054,True,near-240,47,22,15,13.75,2,down,2,2
306,1,True,1.9613475000078324,800.0,800.0,50.0,0,False,0,up,0.16666666666666666,4,0,0.09230509999906644,0.09230509999906644,2.3603504999919096,False,near-rndm,36,1,0,0.625,2,up,16,0
307,4,True,0.7116329000127735,800.0,50.0,33.0,10,False,2,down,0.16666666666666666,15,0.1867884000093909,0.3124320000060834,0.4992204000154743,0.5095674999902258,False,near-160,47,5,3,3.125,2,down,2,0
308,1,True,0.8597224999975879,800.0,100.0,50.0,0,False,1,down,0.16666666666666666,19,0,0.3442299999878742,0.3442299999878742,1.9435978999972576,False,near-rnd2,43,9,6,5.625,3,down,16,1
309,2,True,0.9817843999917386,800.0,33.0,50.0,0,False,3,down,0.16666666666666666,33,0,0.5657180999987759,0.5657180999987759,0.7141839000105392,False,near-rnd3,47,9,2,5.625,3,down,16,1
310,2,True,0.848313100010273,800.0,50.0,33.0,5,False,2,down,0.16666666666666666,22,0.09179759999096859,0.4069791000074474,0.498776699998416,0.8366360000072746,False,near-080,47,17,12,10.625,2,down,2,2
311,1,True,1.6788616000121692,800.0,50.0,33.0,10,False,2,down,0.16666666666666666,15,0.16688930000236724,0.286951299989596,0.45384059999196324,0.7041191000025719,True,near-160,48,6,4,3.75,2,down,2,0
312,4,True,0.8521939000056591,800.0,800.0,50.0,0,False,0,up,0.16666666666666666,4,0,0.12913489999482408,0.12913489999482408,0.8800598999951035,True,near-rndm,37,2,1,1.25,1.0,up,16,0
313,1,True,1.320467199999257,800.0,50.0,33.0,5,False,2,down,0.16666666666666666,22,0.09612609999021515,0.395596199989086,0.49172229997930117,0.7321012000029441,True,near-080,48,18,13,11.25,2,down,2,2
314,1,True,1.34277529999963,800.0,50.0,33.0,15,False,2,down,0.16666666666666666,10,0.25201250000100117,0.19954739999957383,0.451559900000575,1.7978715000062948,False,near-240,48,23,15,14.375,2,down,2,2
315,2,True,0.7915886999981012,800.0,100.0,50.0,0,False,1,down,0.16666666666666666,19,0,0.365236300000106,0.365236300000106,0.9164055000001099,True,near-rnd2,44,10,7,6.25,0.5,down,16,1
316,1,True,1.2641014999971958,800.0,33.0,50.0,0,False,3,up,0.16666666666666666,41,0,0.6743215000024065,0.6743215000024065,0.43614140000136103,True,near-rnd3,48,1,1,0.625,0.5,up,4,0
317,2,True,0.9566783000045689,800.0,50.0,33.0,5,False,2,down,0.16666666666666666,22,0.09521139999560546,0.4036622999992687,0.4988736999948742,0.6807922999869334,False,near-080,49,19,13,11.875,2,down,2,2
318,3,True,1.0470585000002757,800.0,100.0,50.0,0,False,1,down,0.16666666666666666,3,0,0.11111430000164546,0.11111430000164546,0.9880964999902062,False,near-rnd2,45,1,0,0.625,0.5,down,8,0
319,2,True,1.2434970000031171,800.0,50.0,33.0,15,False,2,down,0.16666666666666666,10,0.2561774000059813,0.216831199999433,0.47300860000541434,0.5951499000075273,True,near-240,49,24,16,15.0,2,down,2,2
320,4,True,0.8401747000025352,800.0,50.0,33.0,10,False,2,down,0.16666666666666666,15,0.187562600011006,0.3165962000057334,0.5041588000167394,0.5674663999961922,False,near-160,49,7,4,4.375,2,down,2,0
321,1,True,1.4738717999862274,800.0,800.0,50.0,0,False,0,up,0.16666666666666666,4,0,0.0923218999960227,0.0923218999960227,2.5927865999983624,False,near-rndm,38,3,1,1.875,1.0,up,16,0
322,2,True,1.3692061000037938,800.0,33.0,50.0,0,False,3,up,0.16666666666666666,41,0,0.6898641000007046,0.6898641000007046,2.510331800003769,True,near-rnd3,49,2,2,1.25,1,up,4,0
323,2,True,0.9037023999990197,800.0,800.0,50.0,0,False,0,up,0.16666666666666666,20,0,0.3579809000075329,0.3579809000075329,0.4637644000031287,True,near-rndm,39,1,1,0.625,0.5,up,16,0
324,2,True,2.847523699994781,800.0,50.0,33.0,10,False,2,down,0.16666666666666666,15,0.18313520000083372,0.30018800000834744,0.48332320000918116,1.0635829999955604,False,near-160,50,8,4,5.0,2,down,2,0
325,2,True,1.1919068999995943,800.0,100.0,50.0,0,False,1,down,0.16666666666666666,3,0,0.09613920000265352,0.09613920000265352,1.1874985000031302,False,near-rnd2,46,2,0,1.25,1,down,8,0
326,1,True,1.0492661999887787,800.0,50.0,33.0,5,False,2,down,0.16666666666666666,22,0.09290579998923931,0.39315229999192525,0.48605809998116456,0.9118529999977909,False,near-080,50,20,13,12.5,2,down,2,2
327,2,True,0.8859893000044394,800.0,33.0,50.0,0,False,3,up,0.16666666666666666,41,0,0.6953192999935709,0.6953192999935709,1.6016006999998353,False,near-rnd3,50,3,2,1.875,1,up,4,0
328,3,True,0.7984833999944385,800.0,33.0,50.0,0,False,3,up,0.16666666666666666,41,0,0.7017139000090538,0.7017139000090538,1.3348855999938678,False,near-rnd3,51,4,2,2.5,1,up,4,0
329,1,True,1.4519366000022274,800.0,100.0,50.0,0,False,1,up,0.16666666666666666,11,0,0.22266270000545774,0.22266270000545774,1.0958777999912854,False,near-rnd2,47,1,0,0.625,1,up,4,0
330,3,True,1.8514957000006689,800.0,800.0,50.0,0,False,0,up,0.16666666666666666,20,0,0.36172410000290256,0.36172410000290256,0.438583800001652,True,near-rndm,40,2,2,1.25,1.0,up,16,0
331,4,True,1.1058962999959476,800.0,50.0,33.0,10,False,2,down,0.16666666666666666,15,0.19419510000443552,0.3173255000001518,0.5115206000045873,0.49434540000220295,True,near-160,51,9,5,5.625,2,down,2,1
332,3,True,1.3675673000107054,800.0,50.0,33.0,5,False,2,down,0.16666666666666666,22,0.09745770000154153,0.4081459000008181,0.5056036000023596,0.45774440000241157,True,near-080,51,21,14,13.125,2,down,2,2
333,3,True,1.5726732000039192,800.0,100.0,50.0,0,False,1,up,0.16666666666666666,11,0,0.2405490999954054,0.2405490999954054,0.7029987999994773,True,near-rnd2,48,2,1,1.25,1,up,4,0
334,3,True,0.9657137000031071,800.0,800.0,50.0,0,False,0,up,0.16666666666666666,20,0,0.36687759999767877,0.36687759999767877,0.44988650000595953,True,near-rndm,41,3,3,1.875,1.0,up,16,0
335,1,True,0.8854061999882106,800.0,33.0,50.0,0,False,3,up,0.16666666666666666,41,0,0.6807735999900615,0.6807735999900615,0.36121089999505784,True,near-rnd3,52,5,3,3.125,1,up,4,0
336,2,True,0.796368800001801,800.0,50.0,33.0,5,False,2,down,0.16666666666666666,22,0.09061709999514278,0.3998868000053335,0.4905039000004763,0.5396845000068424,True,near-080,52,22,15,13.75,2,down,2,2
337,2,True,0.9309820999915246,800.0,50.0,33.0,10,False,2,down,0.16666666666666666,15,0.18216199999733362,0.2928870000032475,0.47504900000058115,0.44494549999944866,True,near-160,52,10,6,6.25,2,down,2,1
338,4,True,0.9080136999982642,800.0,50.0,33.0,10,False,2,down,0.16666666666666666,15,0.18710110000392888,0.3230795000126818,0.5101806000166107,0.7635055999999167,False,near-160,53,11,6,6.875,2,down,2,1
339,2,True,1.1841489999933401,800.0,100.0,50.0,0,False,1,up,0.16666666666666666,11,0,0.22531080000044312,0.22531080000044312,0.8490738999971654,False,near-rnd2,49,3,1,1.875,1,up,4,0
340,1,True,1.236984700008179,800.0,50.0,33.0,5,False,2,down,0.16666666666666666,22,0.09101089999603573,0.3971453999984078,0.48815629999444354,0.575848299995414,True,near-080,53,23,16,14.375,2,down,2,2
341,3,True,0.9079928999999538,800.0,800.0,50.0,0,False,0,down,0.16666666666666666,4,0,0.10851569999067578,0.10851569999067578,0.7972350000054576,False,near-rndm,42,1,0,0.625,0.5,down,8,0
342,1,True,0.894049399998039,800.0,33.0,50.0,0,False,3,up,0.16666666666666666,41,0,0.6809383999934653,0.6809383999934653,1.446230600005947,False,near-rnd3,53,6,3,3.75,1,up,4,0
343,3,True,1.9151087999925949,800.0,33.0,50.0,0,False,3,up,0.16666666666666666,41,0,0.6954276000033133,0.6954276000033133,0.45337660000950564,True,near-rnd3,54,7,4,4.375,1,up,4,0
344,3,True,0.9045216000085929,800.0,800.0,50.0,0,False,0,down,0.16666666666666666,4,0,0.11686619999818504,0.11686619999818504,0.6747515000024578,True,near-rndm,43,2,1,1.25,1,down,8,0
345,3,True,0.8384256999997888,800.0,100.0,50.0,0,False,1,up,0.16666666666666666,11,0,0.24115729999903124,0.24115729999903124,0.8619510999997146,False,near-rnd2,50,4,1,2.5,1,up,4,0
346,2,True,0.8218878000043333,800.0,50.0,33.0,10,False,2,down,0.16666666666666666,15,0.17179029999533668,0.28754590000608005,0.45933620000141673,0.4885070000018459,True,near-160,54,12,7,7.5,2,down,2,1
347,4,True,0.8417607000010321,800.0,50.0,33.0,5,False,2,down,0.16666666666666666,22,0.10811269999248907,0.42232480000529904,0.5304374999977881,0.3984108999866294,True,near-080,54,24,17,15.0,2,down,2,2
348,1,True,1.479374699993059,800.0,100.0,50.0,0,False,1,up,0.16666666666666666,15,0,0.2868198000069242,0.2868198000069242,0.5623445999954129,True,near-rnd2,51,1,1,0.625,1,up,4,0
349,3,True,0.8908850000007078,800.0,800.0,50.0,0,False,0,down,0.16666666666666666,4,0,0.11800740000035148,0.11800740000035148,1.0517132000095444,False,near-rndm,44,3,1,1.875,1,down,8,0
350,4,True,2.382235299999593,800.0,50.0,33.0,10,False,2,down,0.16666666666666666,15,0.18570180000097025,0.3035801999940304,0.48928199999500066,0.44987359999504406,True,near-160,55,13,8,8.125,2,down,2,1
351,2,True,0.8900188999978127,800.0,33.0,50.0,0,False,3,up,0.16666666666666666,41,0,0.6939080000011018,0.6939080000011018,0.6981082999991486,True,near-rnd3,55,8,5,5.0,1,up,4,0
352,2,True,0.9357292999920901,800.0,800.0,50.0,0,False,0,down,0.16666666666666666,4,0,0.10245770000619814,0.10245770000619814,1.0364102000021376,False,near-rndm,45,4,1,2.5,1,down,8,0
353,1,True,1.0554915999964578,800.0,33.0,50.0,0,False,3,up,0.16666666666666666,41,0,0.6784170999890193,0.6784170999890193,0.3450598000054015,True,near-rnd3,56,9,6,5.625,1,up,4,1
354,2,True,1.1914096000109566,800.0,100.0,50.0,0,False,1,up,0.16666666666666666,15,0,0.30055180001363624,0.30055180001363624,0.5445437000016682,False,near-rnd2,52,2,1,1.25,1,up,4,0
355,1,True,0.9524041000113357,800.0,50.0,33.0,10,False,2,down,0.16666666666666666,15,0.1738006000086898,0.2802499999961583,0.4540506000048481,1.4153901999961818,False,near-160,56,14,8,8.75,2,down,2,1
356,2,True,0.7093367999914335,800.0,33.0,50.0,0,False,3,up,0.16666666666666666,41,0,0.6860313999932259,0.6860313999932259,0.8679777000070317,False,near-rnd3,57,10,6,6.25,1,up,4,1
357,1,True,1.2397447999974247,800.0,800.0,50.0,0,False,0,up,0.16666666666666666,12,0,0.21706179999455344,0.21706179999455344,0.7204815000004601,True,near-rndm,46,1,1,0.625,1,up,4,0
358,2,True,0.7755095999891637,800.0,100.0,50.0,0,False,1,up,0.16666666666666666,15,0,0.2954360000003362,0.2954360000003362,1.022345100005623,False,near-rnd2,53,3,1,1.875,1,up,4,0
359,3,True,0.7894079999969108,800.0,50.0,33.0,10,False,2,down,0.16666666666666666,15,0.18244980000599753,0.3113061000040034,0.4937559000100009,1.964408200001344,True,near-160,57,15,9,9.375,2,down,2,1
360,1,True,1.5317093000048772,800.0,100.0,50.0,0,False,1,up,0.16666666666666666,15,0,0.27796089999901596,0.27796089999901596,0.7884314999973867,True,near-rnd2,54,4,2,2.5,1,up,4,0
361,3,True,0.9085513000027277,800.0,33.0,50.0,0,False,3,up,0.16666666666666666,41,0,0.6946774999960326,0.6946774999960326,0.8384407000121428,True,near-rnd3,58,11,7,6.875,1,up,4,1
362,1,True,1.1688469000073383,800.0,50.0,33.0,10,False,2,down,0.16666666666666666,15,0.326325200003339,0.2820977000083076,0.6084229000116466,0.5246363000042038,True,near-160,58,16,10,10.0,2,down,2,1
363,2,True,1.657594300006167,800.0,800.0,50.0,0,False,0,up,0.16666666666666666,12,0,0.2293712999962736,0.2293712999962736,0.6476380999956746,True,near-rndm,47,2,2,1.25,1,up,4,0
364,2,True,0.9816716000059387,800.0,800.0,50.0,0,False,0,up,0.16666666666666666,12,0,0.22974869998870417,0.22974869998870417,0.5161611000075936,True,near-rndm,48,3,3,1.875,1,up,4,0
365,1,True,0.8548987999965902,800.0,100.0,50.0,0,False,1,up,0.16666666666666666,15,0,0.2773407000058796,0.2773407000058796,0.7503598000039347,False,near-rnd2,55,5,2,3.125,1,up,4,0
366,4,True,0.8496292000054382,800.0,33.0,50.0,0,False,3,up,0.16666666666666666,41,0,0.7092613999993773,0.7092613999993773,0.33115410000027623,False,near-rnd3,59,12,7,7.5,1,up,4,1
367,3,True,1.1556849999906262,800.0,50.0,33.0,10,False,2,down,0.16666666666666666,15,0.18270570000458974,0.3009325000020908,0.48363820000668056,0.7619027000037022,True,near-160,59,17,11,10.625,2,down,2,2
368,2,True,1.0916601000062656,800.0,50.0,33.0,10,False,2,down,0.16666666666666666,15,0.17369920000783168,0.2959475000097882,0.4696467000176199,0.5970073000062257,True,near-160,60,18,12,11.25,2,down,2,2
369,2,True,0.9376984999980778,800.0,100.0,50.0,0,False,1,up,0.16666666666666666,19,0,0.3614500000112457,0.3614500000112457,0.5748364000028232,True,near-rnd2,56,1,1,0.625,1,up,4,0
370,1,True,0.9533951000048546,800.0,33.0,50.0,0,False,3,up,0.16666666666666666,41,0,0.6777691000024788,0.6777691000024788,0.5651492000033613,True,near-rnd3,60,13,8,8.125,1,up,4,1
371,1,True,1.0593504999997094,800.0,800.0,50.0,0,False,0,down,0.16666666666666666,8,0,0.15502079999714624,0.15502079999714624,0.6757745999930194,True,near-rndm,49,1,1,0.625,1,down,2,0
372,4,True,0.8854799999971874,800.0,33.0,50.0,0,False,3,up,0.16666666666666666,41,0,0.8926414000015939,0.8926414000015939,0.10825499999918975,True,near-rnd3,61,14,9,8.75,1,up,4,1
373,4,True,0.7506292000034591,800.0,100.0,50.0,0,False,1,up,0.16666666666666666,19,0,0.3839780999987852,0.3839780999987852,0.5725868000008631,True,near-rnd2,57,2,2,1.25,1,up,4,0
374,1,True,1.1852418000053149,800.0,800.0,50.0,0,False,0,down,0.16666666666666666,8,0,0.15850269999646116,0.15850269999646116,0.641594000000623,True,near-rndm,50,2,2,1.25,2,down,2,0
375,2,True,0.9318435000022873,800.0,50.0,33.0,10,False,2,down,0.16666666666666666,15,0.18011410000326578,0.29937179999251384,0.4794858999957796,0.4947700999910012,True,near-160,61,19,13,11.875,2,down,2,2
376,2,True,0.6690877999935765,800.0,800.0,50.0,0,False,0,down,0.16666666666666666,8,0,0.1619589000038104,0.1619589000038104,0.6221177000115858,True,near-rndm,51,3,3,1.875,2,down,2,0
377,3,True,0.8574036000063643,800.0,33.0,50.0,0,False,3,up,0.16666666666666666,41,0,0.6998026000073878,0.6998026000073878,0.4088724000030197,True,near-rnd3,62,15,10,9.375,1,up,4,1
378,2,True,0.6969272999995155,800.0,50.0,33.0,10,False,2,down,0.16666666666666666,15,0.18210869999893475,0.2924124999990454,0.47452119999798015,0.3917306999937864,True,near-160,62,20,14,12.5,2,down,2,2
379,3,True,0.6723394000000553,800.0,100.0,50.0,0,False,1,up,0.16666666666666666,19,0,0.36170559999300167,0.36170559999300167,0.4441357999894535,True,near-rnd2,58,3,3,1.875,1,up,4,0
380,1,True,1.1874387999996543,800.0,50.0,33.0,10,False,2,down,0.16666666666666666,15,0.1729395000002114,0.2772648999962257,0.45020439999643713,0.4559543999930611,True,near-160,63,21,15,13.125,2,down,2,2
381,1,True,1.164791499992134,800.0,33.0,50.0,0,False,3,up,0.16666666666666666,41,0,0.6811234999913722,0.6811234999913722,0.5573782999999821,False,near-rnd3,63,16,10,10.0,1,up,4,1
382,2,True,0.7821474999946076,800.0,100.0,50.0,0,False,1,down,0.16666666666666666,15,0,0.29814889999397565,0.29814889999397565,0.46756159998767544,True,near-rnd2,59,1,1,0.625,1,down,2,0
383,2,True,1.5331918000010774,800.0,800.0,50.0,0,False,0,down,0.16666666666666666,8,0,0.1709631999983685,0.1709631999983685,1.3829276000033133,True,near-rndm,52,4,4,2.5,2,down,2,0
384,2,True,0.9976843999902485,800.0,50.0,33.0,10,False,2,down,0.16666666666666666,15,0.17617560000508092,0.29590949999692384,0.47208510000200476,0.8636876999953529,False,near-160,64,22,15,13.75,2,down,2,2
385,1,True,1.2025348999886774,800.0,100.0,50.0,0,False,1,down,0.16666666666666666,15,0,0.2810167999996338,0.2810167999996338,1.5569138999999268,False,near-rnd2,60,2,1,1.25,2,down,2,0
386,1,True,1.1842882000055397,800.0,800.0,50.0,0,False,0,down,0.16666666666666666,8,0,0.15979320000042208,0.15979320000042208,0.7538429999985965,True,near-rndm,53,5,5,3.125,2,down,2,0
387,1,True,0.7807401000027312,800.0,33.0,50.0,0,False,3,up,0.16666666666666666,41,0,0.6793496000027517,0.6793496000027517,1.351951899996493,False,near-rnd3,64,17,10,10.625,1,up,4,2
388,2,True,1.4013132999971276,800.0,800.0,50.0,0,False,0,down,0.16666666666666666,8,0,0.16511680000985507,0.16511680000985507,0.6279167000029702,True,near-rndm,54,6,6,3.75,2,down,2,0
389,1,True,1.1713567999977386,800.0,33.0,50.0,0,False,3,up,0.16666666666666666,41,0,0.7172930000087945,0.7172930000087945,0.7736486000067089,False,near-rnd3,65,18,10,11.25,1,up,4,2
390,2,True,1.4114389000023948,800.0,100.0,50.0,0,False,1,down,0.16666666666666666,15,0,0.2922558999998728,0.2922558999998728,0.626891699997941,False,near-rnd2,61,3,1,1.875,2,down,2,0
391,3,True,6.259359300005599,800.0,50.0,33.0,10,False,2,down,0.16666666666666666,15,0.1867645000020275,0.30991830000129994,0.49668280000332743,0.6385875999985728,False,near-160,65,23,15,14.375,2,down,2,2
392,2,True,0.8037030999985291,800.0,33.0,50.0,0,False,3,up,0.16666666666666666,42,0,0.7058803999971133,0.7058803999971133,1.07705769999302,False,near-rnd3,66,1,0,0.625,1,up,1,0
393,2,True,1.145548400003463,800.0,800.0,50.0,0,False,0,down,0.16666666666666666,6,0,0.12985509999271017,0.12985509999271017,2.3985129999928176,True,near-rndm,55,1,1,0.625,2,down,2,0
394,3,True,1.6749751000024844,800.0,50.0,33.0,10,False,2,down,0.16666666666666666,15,0.18114450000575744,0.2966627999994671,0.47780730000522453,0.5376920999988215,False,near-160,66,24,15,15.0,2,down,2,2
