trial,primeIter,primeCorrect,primeTime,primeDepth,stimDepth,extraDepth,driveFrames,nearToFar,diopters,direction,size,intensity,extraLatency,mainLatency,totalLatency,responseTime,correct,caseLabel,caseTrial,trialsAtStep,stepCorrect,expected,w,direction,stepsize,stepChange
1,1,True,2.1086702999891713,800.0,100.0,50.0,0,False,1,start,0.16666666666666666,60,0,1.0059515000029933,1.0059515000029933,0.483161399999517,True,near-rnd2,1,1,1,0.625,0.5,start,16,0
2,2,True,1.456673700013198,800.0,50.0,33.0,0,False,2,start,0.16666666666666666,60,0,1.003798599995207,1.003798599995207,0.2665433999936795,True,near-000,1,1,1,0.625,0.5,start,16,0
3,2,True,2.326206599987927,800.0,50.0,33.0,5,False,2,start,0.16666666666666666,60,0.09693749999860302,1.0132153000013204,1.1101527999999234,0.19797219999600202,True,near-080,1,1,1,0.625,0.5,start,16,0
4,2,True,1.8788658999983454,800.0,800.0,50.0,0,False,0,start,0.16666666666666666,60,0,0.9971666999917943,0.9971666999917943,2.904151099995943,True,near-rndm,1,1,1,0.625,0.5,start,16,0
5,1,True,1.8443664999940665,800.0,33.0,50.0,0,False,3,start,0.16666666666666666,60,0,0.9846191999968141,0.9846191999968141,0.748285500012571,True,near-rnd3,1,1,1,0.625,0.5,start,16,0
6,1,True,2.4714998999988893,800.0,50.0,33.0,10,False,2,start,0.16666666666666666,60,0.1706214000005275,1.0155000999948243,1.1861214999953518,0.6266422000044258,True,near-160,1,1,1,0.625,0.5,start,16,0
7,1,True,4.586521200006246,800.0,50.0,33.0,15,False,2,start,0.16666666666666666,60,0.24957349999749567,0.9984282999939751,1.2480017999914708,0.10448699998960365,True,near-240,1,1,1,0.625,0.5,start,16,0
8,3,True,1.1705394000018714,800.0,33.0,50.0,0,False,3,start,0.16666666666666666,44,0,0.7446853000001283,0.7446853000001283,0.9240486000053352,False,near-rnd3,2,1,0,0.625,1.0,start,16,0
9,1,True,2.0163838000007672,800.0,50.0,33.0,0,False,2,start,0.16666666666666666,44,0,0.7449828999961028,0.7449828999961028,0.5022363000025507,True,near-000,2,1,1,0.625,1.0,start,16,0
10,2,True,0.9034597999998368,800.0,100.0,50.0,0,False,1,start,0.16666666666666666,44,0,0.7570070000074338,0.7570070000074338,0.5206097999907797,True,near-rnd2,2,1,1,0.625,1.0,start,16,0
11,1,True,1.5146207999932813,800.0,50.0,33.0,10,False,2,start,0.16666666666666666,44,0.17120779999822844,0.7569228999927873,0.9281306999910157,0.14938960000290535,True,near-160,2,1,1,0.625,1.0,start,16,0
12,3,True,1.081596999996691,800.0,800.0,50.0,0,False,0,start,0.16666666666666666,44,0,0.7595045000052778,0.7595045000052778,0.18102550000185147,True,near-rndm,2,1,1,0.625,1.0,start,16,0
13,1,True,1.2770722999994177,800.0,50.0,33.0,15,False,2,start,0.16666666666666666,44,0.2553353999974206,0.7422544000000926,0.9975897999975132,0.23106719998759218,True,near-240,2,1,1,0.625,1.0,start,16,0
14,3,True,1.0374852999957511,800.0,50.0,33.0,5,False,2,start,0.16666666666666666,44,0.09494409999751952,0.7600233000121079,0.8549674000096275,0.4572641999984626,True,near-080,2,1,1,0.625,1.0,start,16,0
15,3,True,0.9691082999925129,800.0,50.0,33.0,15,False,2,start,0.16666666666666666,28,0.2663425999926403,0.5092888999934075,0.7756314999860479,0.500630499998806,True,near-240,3,1,1,0.625,1.0,start,16,0
16,1,True,2.1439631000102963,800.0,50.0,33.0,5,False,2,start,0.16666666666666666,28,0.09007109999947716,0.49319850000028964,0.5832695999997668,1.3533435999997891,False,near-080,3,1,0,0.625,1.0,start,16,0
17,2,True,1.3842557000025408,800.0,50.0,33.0,0,False,2,start,0.16666666666666666,28,0,0.4999930000049062,0.4999930000049062,1.7225176000065403,False,near-000,3,1,0,0.625,1.0,start,16,0
18,2,True,1.5175811000081012,800.0,100.0,50.0,0,False,1,start,0.16666666666666666,28,0,0.5009299999946961,0.5009299999946961,0.9756209000042873,True,near-rnd2,3,1,1,0.625,1.0,start,16,0
19,3,True,2.052779899997404,800.0,33.0,50.0,0,False,3,start,0.16666666666666666,44,0,0.7669617000065045,0.7669617000065045,0.8284079000004567,True,near-rnd3,3,2,1,1.25,1.0,start,16,0
20,2,True,2.1332183000049554,800.0,800.0,50.0,0,False,0,start,0.16666666666666666,28,0,0.4881749999913154,0.4881749999913154,0.5981661999976495,True,near-rndm,3,1,1,0.625,1.0,start,16,0
21,2,True,6.643816099996911,800.0,50.0,33.0,10,False,2,start,0.16666666666666666,28,0.17069259998970665,0.4931911999883596,0.6638837999780662,0.6718842999980552,True,near-160,3,1,1,0.625,1.0,start,16,0
22,4,True,1.0048813999892445,800.0,50.0,33.0,10,False,2,start,0.16666666666666666,12,0.19520180000108667,0.2614804000040749,0.4566822000051616,1.044787200007704,False,near-160,4,1,0,0.625,0.5,start,16,0
23,2,True,0.9541471999982605,800.0,100.0,50.0,0,False,1,start,0.16666666666666666,12,0,0.23895600000105333,0.23895600000105333,1.1234714000020176,False,near-rnd2,4,1,0,0.625,0.5,start,16,0
24,1,True,3.299290300012217,800.0,800.0,50.0,0,False,0,start,0.16666666666666666,12,0,0.22227339999517426,0.22227339999517426,0.6115350000036415,True,near-rndm,4,1,1,0.625,0.5,start,16,0
25,4,True,1.2368720000085887,800.0,33.0,50.0,0,False,3,start,0.16666666666666666,28,0,0.5001442000066163,0.5001442000066163,0.9223694999964209,True,near-rnd3,4,1,1,0.625,0.5,start,16,0
26,1,True,1.518309399994905,800.0,50.0,33.0,0,False,2,up,0.16666666666666666,44,0,0.7438167000073008,0.7438167000073008,0.6707484999933513,True,near-000,4,1,1,0.625,0.5,up,16,0
27,3,True,0.8896195999986958,800.0,50.0,33.0,15,False,2,start,0.16666666666666666,12,0.26982040000439156,0.2601356999948621,0.5299560999992536,1.1407446000084747,False,near-240,4,1,0,0.625,0.5,start,16,0
28,1,True,2.6304291999986162,800.0,50.0,33.0,5,False,2,up,0.16666666666666666,44,0.0916163000074448,0.7497153999865986,0.8413316999940434,0.555030399991665,True,near-080,4,1,1,0.625,0.5,up,16,0
29,3,True,1.406492199996137,800.0,50.0,33.0,10,False,2,up,0.16666666666666666,28,0.18010009999852628,0.5160754000098677,0.696175500008394,0.4519999000040116,True,near-160,5,1,1,0.625,0.5,up,16,0
30,2,True,0.7647070999955758,800.0,50.0,33.0,15,False,2,up,0.16666666666666666,28,0.2531403000029968,0.5036602999898605,0.7568005999928573,0.49535470000409987,True,near-240,5,1,1,0.625,0.5,up,16,0
31,2,True,1.3128441000008024,800.0,100.0,50.0,0,False,1,up,0.16666666666666666,28,0,0.49749699998938013,0.49749699998938013,0.8005944000033196,True,near-rnd2,5,1,1,0.625,0.5,up,16,0
32,1,True,1.7216336999990745,800.0,800.0,50.0,0,False,0,start,0.16666666666666666,0,0,0.020956000007572584,0.020956000007572584,2.833470000012312,False,near-rndm,5,1,0,0.625,0.5,start,16,0
33,2,True,1.7612688999943202,800.0,33.0,50.0,0,False,3,start,0.16666666666666666,12,0,0.22420100000454113,0.22420100000454113,1.4602903000049992,False,near-rnd3,5,1,0,0.625,0.5,start,16,0
34,2,True,1.0867968000093242,800.0,50.0,33.0,0,False,2,up,0.16666666666666666,44,0,0.7486019000061788,0.7486019000061788,0.6410744000022532,True,near-000,5,2,2,1.25,1.0,up,16,0
35,1,True,1.6046274999971502,800.0,50.0,33.0,5,False,2,up,0.16666666666666666,44,0.08991660000174306,0.7482767000037711,0.8381933000055142,0.9644493000087095,True,near-080,5,2,2,1.25,1.0,up,16,0
36,1,True,1.4715022999880603,800.0,50.0,33.0,10,False,2,up,0.16666666666666666,28,0.1755360999959521,0.49057969999557827,0.6661157999915304,0.7020800000027521,True,near-160,6,2,2,1.25,1.0,up,16,0
37,1,True,1.681054899992887,800.0,50.0,33.0,0,False,2,up,0.16666666666666666,44,0,0.7376464999979362,0.7376464999979362,0.6990599000127986,True,near-000,6,3,3,1.875,1.0,up,16,0
38,1,True,1.2634213999990607,800.0,50.0,33.0,15,False,2,up,0.16666666666666666,28,0.2478419999970356,0.48893720000342,0.7367792000004556,0.5226364999980433,True,near-240,6,2,2,1.25,1.0,up,16,0
39,4,True,1.0192429000017,800.0,50.0,33.0,5,False,2,up,0.16666666666666666,44,0.11951080001017544,0.7777069000003394,0.8972177000105148,0.7276254000025801,True,near-080,6,3,3,1.875,1.0,up,16,0
40,2,True,1.148434399990947,800.0,33.0,50.0,0,False,3,up,0.16666666666666666,28,0,0.47556429999531247,0.47556429999531247,1.2513264000008348,False,near-rnd3,6,1,0,0.625,0.5,up,16,0
41,3,True,1.3068849999981467,800.0,800.0,50.0,0,False,0,up,0.16666666666666666,16,0,0.3072091000067303,0.3072091000067303,0.6397162000066601,True,near-rndm,6,1,1,0.625,0.5,up,16,0
42,1,True,1.43753039999865,800.0,100.0,50.0,0,False,1,up,0.16666666666666666,28,0,0.4909339000005275,0.4909339000005275,0.9549274000019068,True,near-rnd2,6,2,2,1.25,1.0,up,16,0
43,2,True,1.0578665000066394,800.0,50.0,33.0,5,False,2,down,0.16666666666666666,28,0.09299029999237973,0.49239319999469444,0.5853834999870742,0.6484373999992386,True,near-080,7,1,1,0.625,0.5,down,8,0
44,2,True,1.6768226999993203,800.0,50.0,33.0,10,False,2,up,0.16666666666666666,28,0.17513259999395814,0.49403329999768175,0.6691658999916399,0.5452489000017522,True,near-160,7,3,3,1.875,1.0,up,16,0
45,2,True,1.2684711000038078,800.0,100.0,50.0,0,False,1,up,0.16666666666666666,28,0,0.49840860000404064,0.49840860000404064,0.6273649000067962,True,near-rnd2,7,3,3,1.875,1.0,up,16,0
46,4,True,1.0466172000014922,800.0,33.0,50.0,0,False,3,up,0.16666666666666666,28,0,0.4979181999951834,0.4979181999951834,1.2254230000107782,True,near-rnd3,7,2,1,1.25,1.0,up,16,0
47,2,True,1.003399499997613,800.0,800.0,50.0,0,False,0,up,0.16666666666666666,16,0,0.28515550000884105,0.28515550000884105,0.5490826000022935,True,near-rndm,7,2,2,1.25,1.0,up,16,0
48,1,True,0.962079500008258,800.0,50.0,33.0,0,False,2,down,0.16666666666666666,28,0,0.4862392000068212,0.4862392000068212,0.8026539999991655,False,near-000,7,1,0,0.625,0.5,down,8,0
49,2,True,0.7502179000002798,800.0,50.0,33.0,15,False,2,up,0.16666666666666666,28,0.25989909999771044,0.495283099997323,0.7551821999950334,0.41063990000111517,True,near-240,7,3,3,1.875,1.0,up,16,0
50,1,True,1.4470224999968195,800.0,50.0,33.0,10,False,2,down,0.16666666666666666,12,0.16709819999232423,0.2294218000024557,0.39651999999477994,0.8178612000046996,False,near-160,8,1,0,0.625,0.5,down,8,0
51,2,True,0.8669143000006443,800.0,50.0,33.0,5,False,2,down,0.16666666666666666,28,0.09238960000220686,0.5076663000072585,0.6000559000094654,0.7370586000033654,True,near-080,8,2,2,1.25,1,down,8,0
52,1,True,2.7281613999948604,800.0,50.0,33.0,0,False,2,down,0.16666666666666666,28,0,0.4872005000070203,0.4872005000070203,0.7733733999921242,False,near-000,8,2,0,1.25,1,down,8,0
53,2,True,1.2502862999972422,800.0,50.0,33.0,15,False,2,down,0.16666666666666666,12,0.25942380000196863,0.24761769999167882,0.5070414999936474,0.6798268999991706,False,near-240,8,1,0,0.625,0.5,down,8,0
54,1,True,3.991174199996749,800.0,800.0,50.0,0,False,0,up,0.16666666666666666,16,0,0.28216999999131076,0.28216999999131076,0.5585387999890372,True,near-rndm,8,3,3,1.875,1.0,up,16,0
55,2,True,1.4807425000035437,800.0,33.0,50.0,0,False,3,up,0.16666666666666666,28,0,0.4777083999942988,0.4777083999942988,0.8407627000124194,False,near-rnd3,8,3,1,1.875,1.0,up,16,0
56,1,True,1.4210775999963516,800.0,100.0,50.0,0,False,1,down,0.16666666666666666,12,0,0.23033170000417158,0.23033170000417158,0.9078884999908041,False,near-rnd2,8,1,0,0.625,0.5,down,8,0
57,2,True,1.125343600011547,800.0,50.0,33.0,5,False,2,down,0.16666666666666666,28,0.1009533000033116,0.5051071000052616,0.6060604000085732,0.5649197000020649,True,near-080,9,3,3,1.875,1,down,8,0
58,2,True,1.9800660999899264,800.0,800.0,50.0,0,False,0,down,0.16666666666666666,0,0,0.028453099992475472,0.028453099992475472,1.543571799993515,False,near-rndm,9,1,0,0.625,0.5,down,8,0
59,1,True,3.778757799998857,800.0,100.0,50.0,0,False,1,down,0.16666666666666666,12,0,0.22742999999900348,0.22742999999900348,0.8762821000127587,False,near-rnd2,9,2,0,1.25,1,down,8,0
60,2,True,1.3190654999925755,800.0,50.0,33.0,0,False,2,up,0.16666666666666666,36,0,0.6336688000010327,0.6336688000010327,0.590691200006404,False,near-000,9,1,0,0.625,1,up,4,0
61,3,True,0.9616834000044037,800.0,33.0,50.0,0,False,3,up,0.16666666666666666,44,0,0.7421686000016052,0.7421686000016052,0.4577361999981804,True,near-rnd3,9,1,1,0.625,0.5,up,16,0
62,2,True,1.0789125000010245,800.0,50.0,33.0,10,False,2,down,0.16666666666666666,12,0.17742159999033902,0.2544006999960402,0.4318222999863792,1.1174766999902204,True,near-160,9,2,1,1.25,1,down,8,0
63,2,True,1.2494309000030626,800.0,50.0,33.0,15,False,2,down,0.16666666666666666,12,0.2595100000035018,0.2490131999948062,0.508523199998308,1.784876499994425,False,near-240,9,2,0,1.25,1,down,8,0
64,3,True,1.1490068999992218,800.0,100.0,50.0,0,False,1,up,0.16666666666666666,20,0,0.5047988999867812,0.5047988999867812,0.5811367999995127,False,near-rnd2,10,1,0,0.625,1,up,4,0
65,1,True,1.5129327999893576,800.0,800.0,50.0,0,False,0,down,0.16666666666666666,0,0,0.022594499998376705,0.022594499998376705,1.9401624000020092,True,near-rndm,10,2,1,1.25,1,down,8,0
66,4,True,1.110496699999203,800.0,50.0,33.0,10,False,2,down,0.16666666666666666,12,0.18230220000259578,0.2654539999930421,0.44775619999563787,0.680584399990039,True,near-160,10,3,2,1.875,1,down,8,0
67,4,True,0.9569939999928465,800.0,50.0,33.0,0,False,2,up,0.16666666666666666,36,0,0.6349941000080435,0.6349941000080435,0.6426945999992313,True,near-000,10,2,1,1.25,1,up,4,0
68,2,True,3.188972800009651,800.0,33.0,50.0,0,False,3,up,0.16666666666666666,44,0,0.734816399999545,0.734816399999545,0.7589644999970915,False,near-rnd3,10,2,1,1.25,1.0,up,16,0
69,2,True,0.8046014999999898,800.0,50.0,33.0,15,False,2,up,0.16666666666666666,20,0.25876599999901373,0.37736269999004435,0.6361286999890581,0.43608519999543205,True,near-240,10,1,1,0.625,1,up,4,0
70,3,True,1.0344498000049498,800.0,50.0,33.0,5,False,2,down,0.16666666666666666,20,0.09263640000426676,0.3771790000027977,0.46981540000706445,0.9075635999906808,False,near-080,10,1,0,0.625,1,down,8,0
71,2,True,0.755131199999596,800.0,800.0,50.0,0,False,0,down,0.16666666666666666,0,0,0.03054340000380762,0.03054340000380762,1.061344099987764,True,near-rndm,11,3,2,1.875,1,down,8,0
72,1,True,0.7859200000093551,800.0,33.0,50.0,0,False,3,up,0.16666666666666666,44,0,0.7289311999920756,0.7289311999920756,0.9839636999968207,True,near-rnd3,11,3,2,1.875,1.0,up,16,0
73,2,True,1.226276000001235,800.0,100.0,50.0,0,False,1,up,0.16666666666666666,20,0,0.36719910000101663,0.36719910000101663,1.4891121999971801,False,near-rnd2,11,2,0,1.25,1,up,4,0
74,2,True,2.1901012000016635,800.0,50.0,33.0,10,False,2,down,0.16666666666666666,12,0.18295080000825692,0.24502049999136943,0.42797129999962635,1.238046900005429,False,near-160,11,4,2,2.5,1,down,8,0
75,3,True,0.8410750000039116,800.0,50.0,33.0,15,False,2,up,0.16666666666666666,20,0.2664918999944348,0.37530379999952856,0.6417956999939634,3.2411277999926824,False,near-240,11,2,1,1.25,1,up,4,0
76,1,True,2.0514583000040147,800.0,50.0,33.0,5,False,2,down,0.16666666666666666,20,0.09151389999897219,0.5066024999978254,0.5981163999967976,2.6451318000035826,True,near-080,11,2,1,1.25,1,down,8,0
77,2,True,4.260820700001204,800.0,50.0,33.0,0,False,2,up,0.16666666666666666,36,0,0.623239199994714,0.623239199994714,0.8123947999993106,True,near-000,11,3,2,1.875,1,up,4,0
78,1,True,1.2447255000006407,800.0,100.0,50.0,0,False,1,up,0.16666666666666666,24,0,0.4350196000013966,0.4350196000013966,0.5813345999922603,False,near-rnd2,12,1,0,0.625,1,up,4,0
79,3,True,1.6057929999951739,800.0,50.0,33.0,5,False,2,down,0.16666666666666666,20,0.09623529999225866,0.38029919999826234,0.476534499990521,4.912379200002761,False,near-080,12,3,1,1.875,1,down,8,0
80,2,True,1.0264977000042563,800.0,50.0,33.0,15,False,2,up,0.16666666666666666,20,0.25459709999267943,0.3733871000004001,0.6279841999930795,2.0903987000056077,False,near-240,12,3,1,1.875,1,up,4,0
81,1,True,1.5225764000060735,800.0,50.0,33.0,0,False,2,up,0.16666666666666666,36,0,0.625465199991595,0.625465199991595,2.1298977000114974,False,near-000,12,4,2,2.5,1,up,4,0
82,2,True,1.2343344999972032,800.0,800.0,50.0,0,False,0,down,0.16666666666666666,0,0,0.03488099999958649,0.03488099999958649,0.9743708000023616,False,near-rndm,12,4,2,2.5,1,down,8,0
83,1,True,0.9656973999954062,800.0,33.0,50.0,0,False,3,up,0.16666666666666666,44,0,0.7247895000036806,0.7247895000036806,1.7910144000052242,False,near-rnd3,12,4,2,2.5,0.5,up,16,0
84,4,True,0.9835213000042131,800.0,50.0,33.0,10,False,2,down,0.16666666666666666,12,0.18767040000238921,0.27006880000408273,0.45773920000647195,1.4132398000074318,False,near-160,12,5,2,3.125,1,down,8,0
85,2,True,0.7490327999985311,800.0,50.0,33.0,0,False,2,up,0.16666666666666666,36,0,0.6260974000033457,0.6260974000033457,0.4246045000036247,False,near-000,13,5,2,3.125,1,up,4,0
86,2,True,0.9028080999996746,800.0,50.0,33.0,10,False,2,up,0.16666666666666666,20,0.18234980000124779,0.38012820000585634,0.5624780000071041,1.0065663999994285,False,near-160,13,1,0,0.625,1,up,4,0
87,1,True,1.1896124000049895,800.0,800.0,50.0,0,False,0,down,0.16666666666666666,0,0,0.026191900004050694,0.026191900004050694,1.2649891000037314,True,near-rndm,13,5,3,3.125,1,down,8,0
88,3,True,1.299488000004203,800.0,50.0,33.0,15,False,2,up,0.16666666666666666,20,0.2551196999993408,0.3774375999928452,0.632557299992186,0.9523000000044703,False,near-240,13,4,1,2.5,1,up,4,0
89,2,True,0.9934934000048088,800.0,100.0,50.0,0,False,1,up,0.16666666666666666,24,0,0.42964539999957196,0.42964539999957196,0.9736955999978818,False,near-rnd2,13,2,0,1.25,1,up,4,0
90,1,True,1.414272499998333,800.0,33.0,50.0,0,False,3,up,0.16666666666666666,44,0,0.7298791000066558,0.7298791000066558,2.434256299995468,True,near-rnd3,13,5,3,3.125,0.5,up,16,0
91,4,True,1.044785599995521,800.0,50.0,33.0,5,False,2,down,0.16666666666666666,20,0.11160360000212677,0.3921247999969637,0.5037283999990905,0.4874623999930918,False,near-080,13,4,1,2.5,1,down,8,0
92,3,True,1.2191995000030147,800.0,50.0,33.0,0,False,2,up,0.16666666666666666,40,0,0.700774700002512,0.700774700002512,0.3989941999898292,False,near-000,14,1,0,0.625,1,up,4,0
93,1,True,1.5982712999975774,800.0,800.0,50.0,0,False,0,down,0.16666666666666666,0,0,0.024048200008110143,0.024048200008110143,1.7571547999978065,False,near-rndm,14,6,3,3.75,1,down,8,0
94,2,True,2.4024119000096107,800.0,50.0,33.0,10,False,2,up,0.16666666666666666,20,0.17462769999110606,0.37124219999532215,0.5458698999864282,0.5286144999990938,False,near-160,14,2,0,1.25,1,up,4,0
95,2,True,0.7455195000075037,800.0,100.0,50.0,0,False,1,up,0.16666666666666666,28,0,0.49498360000143293,0.49498360000143293,1.2348419000045396,False,near-rnd2,14,1,0,0.625,1,up,4,0
96,2,True,0.9501187999994727,800.0,50.0,33.0,15,False,2,up,0.16666666666666666,24,0.25341540000226814,0.44168340000032913,0.6950988000025973,0.5799546000052942,False,near-240,14,1,0,0.625,1,up,4,0
97,1,True,1.4863027999963379,800.0,33.0,50.0,0,False,3,up,0.16666666666666666,44,0,0.7268466000095941,0.7268466000095941,0.95911700000579,True,near-rnd3,14,6,4,3.75,0.5,up,16,0
98,3,True,0.8411243000009563,800.0,50.0,33.0,5,False,2,up,0.16666666666666666,28,0.09527659999730531,0.520109399993089,0.6153859999903943,0.46404269999766257,False,near-080,14,1,0,0.625,1,up,4,0
99,4,True,0.6086120999971172,800.0,50.0,33.0,0,False,2,up,0.16666666666666666,40,0,0.7164371999970172,0.7164371999970172,0.2276832000061404,False,near-000,15,2,0,1.25,1,up,4,0
100,3,True,1.5918471000040881,800.0,50.0,33.0,10,False,2,up,0.16666666666666666,24,0.18509060000360478,0.4509696999884909,0.6360602999920957,0.3479215999977896,False,near-160,15,1,0,0.625,1,up,4,0
101,3,True,0.8966729999956442,800.0,100.0,50.0,0,False,1,up,0.16666666666666666,28,0,0.5002977999974973,0.5002977999974973,0.922170300007565,True,near-rnd2,15,2,1,1.25,1,up,4,0
102,1,True,1.3579954000015277,800.0,33.0,50.0,0,False,3,up,0.16666666666666666,44,0,0.7258433999959379,0.7258433999959379,0.9810230000002775,True,near-rnd3,15,7,5,4.375,0.5,up,16,0
103,3,True,0.9403640999953495,800.0,50.0,33.0,15,False,2,up,0.16666666666666666,24,0.270158100000117,0.45771370000147726,0.7278718000015942,0.2354637999960687,True,near-240,15,2,1,1.25,1,up,4,0
104,1,True,1.431931800005259,800.0,50.0,33.0,5,False,2,up,0.16666666666666666,28,0.09027939999941736,0.48622980000800453,0.5765092000074219,0.8773449000000255,False,near-080,15,2,0,1.25,1,up,4,0
105,4,True,0.8940162000071723,800.0,800.0,50.0,0,False,0,down,0.16666666666666666,0,0,0.04682889999821782,0.04682889999821782,0.6749752999894554,True,near-rndm,15,7,4,4.375,1,down,8,0
106,2,True,1.0274189000047045,800.0,800.0,50.0,0,False,0,down,0.16666666666666666,0,0,0.03264340000168886,0.03264340000168886,0.7351390999974683,False,near-rndm,16,8,4,5.0,1,down,8,0
107,1,True,0.8618956999998773,800.0,50.0,33.0,15,False,2,up,0.16666666666666666,24,0.2515603000065312,0.4355104999995092,0.6870708000060404,0.5293338000046788,True,near-240,16,3,2,1.875,1,up,4,0
108,4,True,0.9686359999905108,800.0,100.0,50.0,0,False,1,up,0.16666666666666666,28,0,0.5229531999939354,0.5229531999939354,0.9199921999970684,True,near-rnd2,16,3,2,1.875,1,up,4,0
109,1,True,1.33204239999759,800.0,50.0,33.0,0,False,2,up,0.16666666666666666,44,0,0.7417594999860739,0.7417594999860739,0.8935809999966295,False,near-000,16,1,0,0.625,1,up,4,0
110,2,True,1.2131140000128653,800.0,50.0,33.0,10,False,2,up,0.16666666666666666,24,0.17153730000427458,0.5789072000043234,0.750444500008598,0.5689196000021184,False,near-160,16,2,0,1.25,1,up,4,0
111,1,True,4.3885981000057654,800.0,33.0,50.0,0,False,3,down,0.16666666666666666,28,0,0.4702665000077104,0.4702665000077104,0.6854919000033988,False,near-rnd3,16,1,0,0.625,0.5,down,8,0
112,1,True,2.783422699998482,800.0,50.0,33.0,5,False,2,up,0.16666666666666666,32,0.09301519999280572,0.5594187999959104,0.6524339999887161,1.1570028999994975,False,near-080,16,1,0,0.625,1,up,4,0
113,3,True,1.153859799989732,800.0,50.0,33.0,0,False,2,up,0.16666666666666666,44,0,0.7630002999940189,0.7630002999940189,0.1441519999934826,False,near-000,17,2,0,1.25,1,up,4,0
114,2,True,1.4627952999871923,800.0,100.0,50.0,0,False,1,up,0.16666666666666666,28,0,0.6234160999883898,0.6234160999883898,0.31188869998732116,False,near-rnd2,17,4,2,2.5,1,up,4,0
115,2,True,2.8387649999931455,800.0,800.0,50.0,0,False,0,down,0.16666666666666666,0,0,0.030193300000973977,0.030193300000973977,1.2546109999966575,False,near-rndm,17,9,4,5.625,1,down,8,1
116,2,True,1.654604700001073,800.0,50.0,33.0,5,False,2,up,0.16666666666666666,32,0.09351909998804331,0.5665825999894878,0.6601016999775311,0.8969819000049029,False,near-080,17,2,0,1.25,1,up,4,0
117,3,True,0.8591115000017453,800.0,50.0,33.0,15,False,2,up,0.16666666666666666,24,0.2609455999918282,0.45457940000051167,0.7155249999923399,0.616922400004114,True,near-240,17,4,3,2.5,1,up,4,0
118,1,True,1.4654015999985859,800.0,33.0,50.0,0,False,3,down,0.16666666666666666,28,0,0.4714218000008259,0.4714218000008259,1.2856691999913892,False,near-rnd3,17,2,0,1.25,1,down,8,0
119,2,True,1.239056000005803,800.0,50.0,33.0,10,False,2,up,0.16666666666666666,28,0.17991690000053495,0.5062834999989718,0.6862003999995068,0.8023862999980338,True,near-160,17,1,1,0.625,1,up,4,0
120,1,True,2.655421200004639,800.0,100.0,50.0,0,False,1,up,0.16666666666666666,28,0,0.4920616000017617,0.4920616000017617,0.8131794999935664,True,near-rnd2,18,5,3,3.125,1,up,4,0
121,2,True,1.1224133999930928,800.0,50.0,33.0,0,False,2,up,0.16666666666666666,48,0,0.8195133999979589,0.8195133999979589,0.6891232000052696,True,near-000,18,1,1,0.625,1,up,8,0
122,4,True,0.9162683000031393,800.0,50.0,33.0,10,False,2,up,0.16666666666666666,28,0.18622669999604113,0.5244584000029135,0.7106850999989547,0.5654630999924848,True,near-160,18,2,2,1.25,1,up,4,0
123,3,True,0.8903769999888027,800.0,33.0,50.0,0,False,3,up,0.16666666666666666,36,0,0.6137130000133766,0.6137130000133766,0.8901562999963062,True,near-rnd3,18,1,1,0.625,1,up,4,0
124,2,True,0.7099204000114696,800.0,50.0,33.0,15,False,2,up,0.16666666666666666,24,0.3683817999990424,0.4453470999869751,0.8137288999860175,2.1670136000029743,False,near-240,18,5,3,3.125,1,up,4,0
125,1,True,1.1500926000007894,800.0,50.0,33.0,5,False,2,up,0.16666666666666666,36,0.08646690000023227,0.6167465000035008,0.7032134000037331,0.5275505000026897,True,near-080,18,1,1,0.625,1,up,4,0
126,2,True,1.952196999991429,800.0,800.0,50.0,0,False,0,up,0.16666666666666666,4,0,0.1004393000039272,0.1004393000039272,0.7800389000040013,True,near-rndm,18,1,1,0.625,1,up,2,0
127,3,True,1.6256645999965258,800.0,50.0,33.0,15,False,2,up,0.16666666666666666,24,0.4221685999946203,0.4419791999971494,0.8641477999917697,0.6213136000005761,True,near-240,19,6,4,3.75,1,up,4,0
128,1,True,1.3778116000030423,800.0,33.0,50.0,0,False,3,up,0.16666666666666666,36,0,0.5990190000011353,0.5990190000011353,1.041077799993218,False,near-rnd3,19,2,1,1.25,1,up,4,0
129,1,True,1.1774879000004148,800.0,100.0,50.0,0,False,1,up,0.16666666666666666,28,0,0.49473049999505747,0.49473049999505747,0.6912747000023955,True,near-rnd2,19,6,4,3.75,1,up,4,0
130,1,True,1.1929786999971839,800.0,800.0,50.0,0,False,0,up,0.16666666666666666,4,0,0.08800410000549164,0.08800410000549164,0.8518999999942025,False,near-rndm,19,2,1,1.25,2,up,2,0
131,1,True,1.702846000000136,800.0,50.0,33.0,0,False,2,up,0.16666666666666666,48,0,0.8136425999982748,0.8136425999982748,0.5790130000095814,True,near-000,19,2,2,1.25,1,up,8,0
132,1,True,1.3407773999933852,800.0,50.0,33.0,5,False,2,up,0.16666666666666666,36,0.09071920000133105,0.6205562000104692,0.7112754000118002,0.6355057999899145,True,near-080,19,2,2,1.25,1,up,4,0
133,3,True,1.0588956999999937,800.0,50.0,33.0,10,False,2,up,0.16666666666666666,28,0.18394930000067689,0.5087810999975773,0.6927303999982541,0.49184050000621937,True,near-160,19,3,3,1.875,1,up,4,0
134,1,True,1.3246314999996684,800.0,33.0,50.0,0,False,3,up,0.16666666666666666,36,0,0.5992735000036191,0.5992735000036191,1.067439500009641,False,near-rnd3,20,3,1,1.875,1,up,4,0
135,1,True,1.566376400005538,800.0,100.0,50.0,0,False,1,up,0.16666666666666666,28,0,0.4979992000007769,0.4979992000007769,0.5164045999990776,False,near-rnd2,20,7,4,4.375,1,up,4,0
136,1,True,2.5422274000011384,800.0,50.0,33.0,15,False,2,up,0.16666666666666666,24,0.25505030000931583,0.42755390000820626,0.6826042000175221,0.5355111999961082,True,near-240,20,7,5,4.375,1,up,4,0
137,3,True,1.960095000002184,800.0,800.0,50.0,0,False,0,up,0.16666666666666666,4,0,0.10603929999342654,0.10603929999342654,0.661827700008871,True,near-rndm,20,3,2,1.875,2,up,2,0
138,2,True,0.9891047999990406,800.0,50.0,33.0,10,False,2,down,0.16666666666666666,24,0.18005909999192227,0.45131649999530055,0.6313755999872228,0.5713475000084145,True,near-160,20,1,1,0.625,1,down,2,0
139,2,True,1.1730536999966716,800.0,50.0,33.0,0,False,2,up,0.16666666666666666,48,0,0.8201211999985389,0.8201211999985389,0.2709749999921769,True,near-000,20,3,3,1.875,1,up,8,0
140,2,True,1.1068783999944571,800.0,50.0,33.0,5,False,2,up,0.16666666666666666,36,0.09662090000347234,0.6327900000032969,0.7294109000067692,0.36432500000228174,False,near-080,20,3,2,1.875,1,up,4,0
141,2,True,1.3498499999986961,800.0,100.0,50.0,0,False,1,up,0.16666666666666666,28,0,0.49443849999806844,0.49443849999806844,0.5153391999920132,True,near-rnd2,21,8,5,5.0,1,up,4,0
142,3,True,1.0246769999939715,800.0,50.0,33.0,15,False,2,up,0.16666666666666666,24,0.2673867999983486,0.45330660000036005,0.7206933999987086,0.3492190999968443,True,near-240,21,8,6,5.0,1,up,4,0
143,1,True,3.209201800011215,800.0,50.0,33.0,10,False,2,down,0.16666666666666666,24,0.1679320999974152,0.43426629999885336,0.6021983999962686,0.4313232000131393,True,near-160,21,2,2,1.25,2,down,2,0
144,2,True,1.129113699993468,800.0,50.0,33.0,0,False,2,down,0.16666666666666666,40,0,0.6947909000009531,0.6947909000009531,0.4669136000011349,False,near-000,21,1,0,0.625,1,down,4,0
145,5,True,1.4443275999947218,800.0,33.0,50.0,0,False,3,up,0.16666666666666666,36,0,0.6445931000052951,0.6445931000052951,0.5777536000096006,False,near-rnd3,21,4,1,2.5,1,up,4,0
146,1,True,2.6602177000022493,800.0,800.0,50.0,0,False,0,up,0.16666666666666666,4,0,0.09589979999873322,0.09589979999873322,0.8138277999969432,True,near-rndm,21,4,3,2.5,2,up,2,0
147,1,True,2.356513399994583,800.0,50.0,33.0,5,False,2,up,0.16666666666666666,36,0.08916669999598525,0.616758000003756,0.7059246999997413,0.5108059999911347,True,near-080,21,4,3,2.5,1,up,4,0
148,2,True,1.057911600000807,800.0,50.0,33.0,5,False,2,up,0.16666666666666666,36,0.10071600000082981,0.6287248999869917,0.7294408999878215,0.7786522999958834,False,near-080,22,5,3,3.125,1,up,4,0
149,2,True,1.1374952000041958,800.0,50.0,33.0,10,False,2,down,0.16666666666666666,24,0.17225909999979194,0.431909100007033,0.6041682000068249,0.7299485999974422,True,near-160,22,3,3,1.875,2,down,2,0
150,4,True,0.7436836999986554,800.0,50.0,33.0,15,False,2,up,0.16666666666666666,24,0.2660399000014877,0.4514576999936253,0.717497599995113,1.1623867999878712,True,near-240,22,9,7,5.625,1,up,4,1
151,3,True,1.0968544999923324,800.0,33.0,50.0,0,False,3,up,0.16666666666666666,40,0,0.6875532999983989,0.6875532999983989,0.6783771000045817,True,near-rnd3,22,1,1,0.625,1,up,4,0
152,2,True,1.1545753999962471,800.0,100.0,50.0,0,False,1,up,0.16666666666666666,28,0,0.4943479999928968,0.4943479999928968,0.5630233999982011,True,near-rnd2,22,9,6,5.625,1,up,4,1
153,1,True,1.0634365000005346,800.0,50.0,33.0,0,False,2,down,0.16666666666666666,40,0,0.6831251999974484,0.6831251999974484,0.6754519999958575,False,near-000,22,2,0,1.25,1,down,4,0
154,3,True,0.9740621999953873,800.0,800.0,50.0,0,False,0,up,0.16666666666666666,4,0,0.10875980000128038,0.10875980000128038,0.761450000005425,True,near-rndm,22,5,4,3.125,2,up,2,0
155,2,True,1.9305942999926629,800.0,100.0,50.0,0,False,1,up,0.16666666666666666,28,0,0.5050270999927307,0.5050270999927307,0.6573896000045352,False,near-rnd2,23,10,6,6.25,1,up,4,1
156,3,True,0.9080449999892153,800.0,50.0,33.0,0,False,2,up,0.16666666666666666,44,0,0.7713067999866325,0.7713067999866325,0.3777836999943247,True,near-000,23,1,1,0.625,1,up,2,0
157,1,True,1.5585379999974975,800.0,33.0,50.0,0,False,3,up,0.16666666666666666,40,0,0.8022950000013225,0.8022950000013225,0.8452611999964574,False,near-rnd3,23,2,1,1.25,1,up,4,0
158,1,True,1.740916400012793,800.0,50.0,33.0,10,False,2,down,0.16666666666666666,24,0.17542020000109915,0.43402919999789447,0.6094493999989936,1.0524139999906765,False,near-160,23,4,3,2.5,2,down,2,0
159,2,True,1.1044263999938266,800.0,50.0,33.0,5,False,2,up,0.16666666666666666,36,0.09448090000660159,0.6262224999954924,0.720703400002094,0.8251619000075152,False,near-080,23,6,3,3.75,1,up,4,0
160,4,True,1.4643676999985473,800.0,50.0,33.0,15,False,2,down,0.16666666666666666,22,0.26814859999285545,0.4290956000040751,0.6972441999969305,0.4294789999985369,True,near-240,23,1,1,0.625,1,down,1,0
161,3,True,2.401325500002713,800.0,800.0,50.0,0,False,0,up,0.16666666666666666,4,0,0.10930749999533873,0.10930749999533873,0.6665478999930201,True,near-rndm,23,6,5,3.75,2,up,2,0
162,4,True,3.907599799989839,800.0,50.0,33.0,15,False,2,down,0.16666666666666666,22,0.28014709999843035,0.4271325000008801,0.7072795999993104,0.5607795999967493,True,near-240,24,2,2,1.25,2,down,1,0
163,2,True,0.820930199988652,800.0,50.0,33.0,10,False,2,down,0.16666666666666666,24,0.1783895999978995,0.43616100000508595,0.6145506000029854,0.646774099994218,True,near-160,24,5,4,3.125,2,down,2,0
164,1,True,1.0412015000038082,800.0,800.0,50.0,0,False,0,up,0.16666666666666666,4,0,0.0907471000100486,0.0907471000100486,1.1415039999992587,True,near-rndm,24,7,6,4.375,2,up,2,0
165,2,True,1.0496113000117475,800.0,33.0,50.0,0,False,3,up,0.16666666666666666,40,0,0.6768779999983963,0.6768779999983963,0.8490515999874333,True,near-rnd3,24,3,2,1.875,1,up,4,0
166,3,True,1.1258322000066983,800.0,50.0,33.0,0,False,2,up,0.16666666666666666,44,0,0.7607354999927338,0.7607354999927338,0.7041951999999583,False,near-000,24,2,1,1.25,2,up,2,0
167,2,True,0.9502062999963528,800.0,100.0,50.0,0,False,1,up,0.16666666666666666,28,0,0.49314229999436066,0.49314229999436066,0.6945961000019452,True,near-rnd2,24,11,7,6.875,1,up,4,1
168,1,True,1.4541084000084084,800.0,50.0,33.0,5,False,2,up,0.16666666666666666,36,0.09276500000851229,0.6258354000019608,0.7186004000104731,0.507087899997714,True,near-080,24,7,4,4.375,1,up,4,0
169,1,True,1.5568089000007603,800.0,800.0,50.0,0,False,0,up,0.16666666666666666,4,0,0.0902392999996664,0.0902392999996664,0.955925499991281,False,near-rndm,25,8,6,5.0,2,up,2,0
170,3,True,0.8823583000048529,800.0,33.0,50.0,0,False,3,up,0.16666666666666666,40,0,0.6745733999996446,0.6745733999996446,0.931232100003399,True,near-rnd3,25,4,3,2.5,1,up,4,0
171,1,True,1.3439948000013828,800.0,100.0,50.0,0,False,1,up,0.16666666666666666,28,0,0.486085099997581,0.486085099997581,0.6529141999926651,True,near-rnd2,25,12,8,7.5,1,up,4,1
172,1,True,0.9332472999958554,800.0,50.0,33.0,0,False,2,up,0.16666666666666666,44,0,0.7404361999942921,0.7404361999942921,0.8797062999947229,True,near-000,25,3,2,1.875,2,up,2,0
173,5,True,1.0116549999947893,800.0,50.0,33.0,5,False,2,up,0.16666666666666666,36,0.12192640001012478,0.6455799000104889,0.7675063000206137,0.4504765000019688,True,near-080,25,8,5,5.0,1,up,4,0
174,2,True,0.9197942999890074,800.0,50.0,33.0,15,False,2,down,0.16666666666666666,22,0.25783709999814164,0.39993100000720005,0.6577681000053417,0.4173618000058923,True,near-240,25,3,3,1.875,2,down,1,0
175,2,True,0.8334537000046112,800.0,50.0,33.0,10,False,2,down,0.16666666666666666,24,0.1841124999918975,0.44266859999333974,0.6267810999852372,0.5983348000008846,True,near-160,25,6,5,3.75,2,down,2,0
176,2,True,0.9529881999915233,800.0,50.0,33.0,10,False,2,down,0.16666666666666666,24,0.17868060000182595,0.4279863999981899,0.6066670000000158,0.6916759000014281,True,near-160,26,7,6,4.375,2,down,2,0
177,2,True,1.7131053000048269,800.0,50.0,33.0,15,False,2,down,0.16666666666666666,22,0.2547907000116538,0.4073530000023311,0.6621437000139849,0.5052242999954615,True,near-240,26,4,4,2.5,2,down,1,0
178,3,True,1.7734074000036344,800.0,800.0,50.0,0,False,0,up,0.16666666666666666,4,0,0.10950750000483822,0.10950750000483822,0.7744224000052782,True,near-rndm,26,9,7,5.625,2,up,2,1
179,2,True,1.397500699997181,800.0,33.0,50.0,0,False,3,up,0.16666666666666666,40,0,0.676316199998837,0.676316199998837,1.1647680000023684,False,near-rnd3,26,5,3,3.125,1,up,4,0
180,2,True,1.1145799000078114,800.0,50.0,33.0,5,False,2,up,0.16666666666666666,36,0.09706159999768715,0.6325050000014016,0.7295665999990888,0.45304760000726674,True,near-080,26,9,6,5.625,1,up,4,1
181,3,True,0.9864036999933887,800.0,50.0,33.0,0,False,2,up,0.16666666666666666,44,0,0.7640238000021782,0.7640238000021782,0.572645599997486,True,near-000,26,4,3,2.5,2,up,2,0
182,1,True,1.6012536999915028,800.0,100.0,50.0,0,False,1,up,0.16666666666666666,28,0,0.6519858999963617,0.6519858999963617,0.8285627000004752,True,near-rnd2,26,13,9,8.125,1,up,4,1
183,3,True,0.8061224999983096,800.0,33.0,50.0,0,False,3,up,0.16666666666666666,40,0,0.6893253000016557,0.6893253000016557,0.8560856999974931,False,near-rnd3,27,6,3,3.75,1,up,4,0
184,2,True,1.0761034000024665,800.0,800.0,50.0,0,False,0,up,0.16666666666666666,4,0,0.10323649999918416,0.10323649999918416,0.7092225000087637,False,near-rndm,27,10,7,6.25,2,up,2,1
185,4,True,1.6746522000030382,800.0,50.0,33.0,10,False,2,down,0.16666666666666666,24,0.18344639999850187,0.46947750000981614,0.652923900008318,0.47368989999813493,True,near-160,27,8,7,5.0,2,down,2,0
186,2,True,1.0631873000093037,800.0,50.0,33.0,5,False,2,up,0.16666666666666666,36,0.10083770001074299,0.6303104999969946,0.7311482000077376,0.5951544999988982,True,near-080,27,10,7,6.25,1,up,4,1
187,3,True,0.9102150999970036,800.0,50.0,33.0,15,False,2,down,0.16666666666666666,22,0.25645889999577776,0.42222000000765547,0.6786789000034332,0.45927179999125656,True,near-240,27,5,5,3.125,2,down,1,0
188,3,True,1.5873031999944942,800.0,50.0,33.0,0,False,2,up,0.16666666666666666,44,0,0.7552785000007134,0.7552785000007134,0.7278701000032015,False,near-000,27,5,3,3.125,2,up,2,0
189,3,True,0.7795731000078376,800.0,100.0,50.0,0,False,1,up,0.16666666666666666,28,0,0.5665169000130845,0.5665169000130845,0.45935150000150315,True,near-rnd2,27,14,10,8.75,1,up,4,1
190,2,True,1.0988197999977274,800.0,50.0,33.0,15,False,2,down,0.16666666666666666,22,0.256850999998278,0.4132881000114139,0.6701391000096919,0.43439670000225306,True,near-240,28,6,6,3.75,2,down,1,0
191,2,True,1.5939364999940153,800.0,800.0,50.0,0,False,0,up,0.16666666666666666,4,0,0.10479800000030082,0.10479800000030082,1.199340300008771,True,near-rndm,28,11,8,6.875,2,up,2,1
192,4,True,0.8279206000006525,800.0,100.0,50.0,0,False,1,down,0.16666666666666666,26,0,0.4775386000110302,0.4775386000110302,0.5409414000023389,True,near-rnd2,28,1,1,0.625,1,down,1,0
193,2,True,2.833456300009857,800.0,50.0,33.0,10,False,2,down,0.16666666666666666,24,0.1807360999955563,0.44310209999093786,0.6238381999864941,0.5299283000058495,True,near-160,28,9,8,5.625,2,down,2,1
194,3,True,1.8858891000127187,800.0,50.0,33.0,5,False,2,up,0.16666666666666666,36,0.10611280000011902,0.6360783999989508,0.7421911999990698,0.5542713000031654,True,near-080,28,11,8,6.875,1,up,4,1
195,2,True,0.9723201000015251,800.0,50.0,33.0,0,False,2,up,0.16666666666666666,44,0,0.7529531000036513,0.7529531000036513,0.4751657999877352,True,near-000,28,6,4,3.75,2,up,2,0
196,3,True,0.7658588000049349,800.0,33.0,50.0,0,False,3,up,0.16666666666666666,40,0,0.6861237000121037,0.6861237000121037,0.8569614000007277,True,near-rnd3,28,7,4,4.375,1,up,4,0
197,1,True,3.1674179999972694,800.0,33.0,50.0,0,False,3,up,0.16666666666666666,40,0,0.6593346000008751,0.6593346000008751,0.6701747000042815,True,near-rnd3,29,8,5,5.0,1,up,4,0
198,1,True,1.0745482000056654,800.0,50.0,33.0,0,False,2,up,0.16666666666666666,44,0,0.7435342999960994,0.7435342999960994,0.4898240999900736,True,near-000,29,7,5,4.375,2,up,2,0
199,2,True,0.7701460999960545,800.0,50.0,33.0,5,False,2,down,0.16666666666666666,34,0.09481650000088848,0.5982228000066243,0.6930393000075128,0.2258441000012681,True,near-080,29,1,1,0.625,1,down,1,0
200,1,True,1.0639724000066053,800.0,100.0,50.0,0,False,1,down,0.16666666666666666,26,0,0.4551709000079427,0.4551709000079427,0.5967006999999285,True,near-rnd2,29,2,2,1.25,2,down,1,0
201,4,True,0.8652721999969799,800.0,50.0,33.0,10,False,2,down,0.16666666666666666,23,0.22433389999787323,0.43820030000642873,0.662534200004302,0.8425444000022253,False,near-160,29,1,0,0.625,2,down,1,0
202,1,True,1.208402100004605,800.0,50.0,33.0,15,False,2,down,0.16666666666666666,21,0.2509433999948669,0.37508709999383427,0.6260304999887012,0.5059139999939362,True,near-240,29,1,1,0.625,2,down,1,0
203,1,True,1.0156739000085508,800.0,800.0,50.0,0,False,0,up,0.16666666666666666,4,0,0.24761380000563804,0.24761380000563804,0.739901099994313,False,near-rndm,29,12,8,7.5,2,up,2,1
204,1,True,3.0926809000084177,800.0,33.0,50.0,0,False,3,up,0.16666666666666666,40,0,0.6632218000013381,0.6632218000013381,0.5964042999985395,True,near-rnd3,30,9,6,5.625,1,up,4,1
205,3,True,2.4564009999885457,800.0,800.0,50.0,0,False,0,up,0.16666666666666666,4,0,0.10597380000399426,0.10597380000399426,1.1407393999979831,True,near-rndm,30,13,9,8.125,2,up,2,1
206,3,True,1.2317422999913106,800.0,100.0,50.0,0,False,1,down,0.16666666666666666,26,0,0.4855302999931155,0.4855302999931155,0.6098165000003064,True,near-rnd2,30,3,3,1.875,2,down,1,0
207,3,True,2.1972775000031106,800.0,50.0,33.0,15,False,2,down,0.16666666666666666,21,0.2613024000020232,0.4108103000035044,0.6721127000055276,0.37874050000391435,True,near-240,30,2,2,1.25,2,down,1,0
208,2,True,1.1130105000047479,800.0,50.0,33.0,0,False,2,up,0.16666666666666666,44,0,0.749063399998704,0.749063399998704,0.3996668000036152,True,near-000,30,8,6,5.0,2,up,2,0
209,1,True,1.2029157999932067,800.0,50.0,33.0,5,False,2,down,0.16666666666666666,34,0.09344959999725688,0.5935460999899078,0.6869956999871647,0.47243509998952504,True,near-080,30,2,2,1.25,2,down,1,0
210,1,True,0.9873139999981504,800.0,50.0,33.0,10,False,2,down,0.16666666666666666,23,0.16943409999657888,0.4091314999968745,0.5785655999934534,0.5492613999958849,False,near-160,30,2,0,1.25,2,down,1,0
211,4,True,1.3627580999891507,800.0,50.0,33.0,0,False,2,up,0.16666666666666666,44,0,0.7829592999914894,0.7829592999914894,0.17567730000882875,True,near-000,31,9,7,5.625,2,up,2,1
212,2,True,1.429365299991332,800.0,33.0,50.0,0,False,3,up,0.16666666666666666,40,0,0.6719969999976456,0.6719969999976456,0.6143732000055024,False,near-rnd3,31,10,6,6.25,1,up,4,1
213,1,True,6.645536800002446,800.0,50.0,33.0,5,False,2,down,0.16666666666666666,34,0.09128490000148304,0.595170100001269,0.6864550000027521,0.6252417000068817,True,near-080,31,3,3,1.875,2,down,1,0
214,2,True,1.1193817000021227,800.0,100.0,50.0,0,False,1,down,0.16666666666666666,26,0,0.4630940000060946,0.4630940000060946,0.6862776999914786,True,near-rnd2,31,4,4,2.5,2,down,1,0
215,2,True,0.860696600007941,800.0,800.0,50.0,0,False,0,up,0.16666666666666666,4,0,0.1080253999971319,0.1080253999971319,0.8876642000104766,True,near-rndm,31,14,10,8.75,2,up,2,1
216,2,True,0.827812300005462,800.0,50.0,33.0,15,False,2,down,0.16666666666666666,21,0.2611732000077609,0.3880370999977458,0.6492103000055067,0.6622178000106942,True,near-240,31,3,3,1.875,2,down,1,0
217,1,True,1.0959980999905383,800.0,50.0,33.0,10,False,2,down,0.16666666666666666,23,0.1683937999914633,0.40454370000225026,0.5729374999937136,0.9387014999956591,False,near-160,31,3,0,1.875,2,down,1,0
218,2,True,1.1919172999914736,800.0,100.0,50.0,0,False,1,down,0.16666666666666666,26,0,0.46726020000642166,0.46726020000642166,0.6689280999999028,True,near-rnd2,32,5,5,3.125,2,down,1,0
219,1,True,0.9142349999892758,800.0,800.0,50.0,0,False,0,up,0.16666666666666666,4,0,0.09578119999787305,0.09578119999787305,1.8941496999905212,True,near-rndm,32,15,11,9.375,2,up,2,1
220,2,True,2.0193314000061946,800.0,50.0,33.0,5,False,2,down,0.16666666666666666,34,0.22489189999760129,0.5937944000033895,0.8186863000009907,0.23101500001212116,True,near-080,32,4,4,2.5,2,down,1,0
221,2,True,0.7039552999922307,800.0,50.0,33.0,10,False,2,down,0.16666666666666666,23,0.17892620000930037,0.5223003999999491,0.7012266000092495,0.6934048999974038,True,near-160,32,4,1,2.5,2,down,1,0
222,1,True,1.187219900006312,800.0,33.0,50.0,0,False,3,up,0.16666666666666666,40,0,0.6645704999973532,0.6645704999973532,1.144146799997543,True,near-rnd3,32,11,7,6.875,1,up,4,1
223,2,True,0.9396367000008468,800.0,50.0,33.0,0,False,2,up,0.16666666666666666,44,0,0.7560388000129024,0.7560388000129024,0.4439898999989964,True,near-000,32,10,8,6.25,2,up,2,1
224,3,True,1.5688388999988092,800.0,50.0,33.0,15,False,2,down,0.16666666666666666,21,0.2660232000052929,0.4050327000004472,0.6710559000057401,0.4324883000081172,True,near-240,32,4,4,2.5,2,down,1,0
225,1,True,1.351066199989873,800.0,50.0,33.0,10,False,2,down,0.16666666666666666,23,0.17299989999446552,0.41378880001138896,0.5867887000058545,0.5417367999907583,True,near-160,33,5,2,3.125,2,down,1,0
226,2,True,1.5241834000044037,800.0,50.0,33.0,0,False,2,up,0.16666666666666666,44,0,0.7511889000015799,0.7511889000015799,0.7523933999909787,True,near-000,33,11,9,6.875,2,up,2,1
227,4,True,0.7893009999970673,800.0,50.0,33.0,5,False,2,down,0.16666666666666666,34,0.2829671999934362,0.6266643999988446,0.9096315999922808,0.20766189999994822,True,near-080,33,5,5,3.125,2,down,1,0
228,2,True,3.2904732000024524,800.0,100.0,50.0,0,False,1,down,0.16666666666666666,26,0,0.46855400000640657,0.46855400000640657,0.464785899996059,True,near-rnd2,33,6,6,3.75,2,down,1,0
229,2,True,1.2046061000000918,800.0,800.0,50.0,0,False,0,up,0.16666666666666666,4,0,0.09916240000165999,0.09916240000165999,0.933061900010216,True,near-rndm,33,16,12,10.0,2,up,2,1
230,2,True,1.0180351000017254,800.0,33.0,50.0,0,False,3,up,0.16666666666666666,40,0,0.6728460000013001,0.6728460000013001,0.7668688999983715,True,near-rnd3,33,12,8,7.5,1,up,4,1
231,2,True,0.8992711000028066,800.0,50.0,33.0,15,False,2,down,0.16666666666666666,21,0.256909399991855,0.38354809999873396,0.640457499990589,0.37043709999124985,True,near-240,33,5,5,3.125,2,down,1,0
232,3,True,1.2114972999988822,800.0,50.0,33.0,15,False,2,down,0.16666666666666666,21,0.26094069999817293,0.40846109999984037,0.6694017999980133,0.6045233000040753,True,near-240,34,6,6,3.75,2,down,1,0
233,2,True,7.719270899993717,800.0,33.0,50.0,0,False,3,up,0.16666666666666666,40,0,0.6674763000046369,0.6674763000046369,0.5667912000062643,True,near-rnd3,34,13,9,8.125,1,up,4,1
234,2,True,1.007583099999465,800.0,800.0,50.0,0,False,0,up,0.16666666666666666,4,0,0.1050288999977056,0.1050288999977056,0.8512059999920893,True,near-rndm,34,17,13,10.625,2,up,2,2
235,2,True,1.7551624000043375,800.0,50.0,33.0,5,False,2,down,0.16666666666666666,34,0.09360649999871384,0.5964852999895811,0.690091799988295,0.562547400011681,True,near-080,34,6,6,3.75,2,down,1,0
236,1,True,1.5054914000065764,800.0,100.0,50.0,0,False,1,down,0.16666666666666666,25,0,0.4431668000033824,0.4431668000033824,0.7744122000003699,True,near-rnd2,34,1,1,0.625,2,down,1,0
237,2,True,1.560996600004728,800.0,50.0,33.0,10,False,2,down,0.16666666666666666,23,0.17272240000602324,0.4182145000086166,0.5909369000146398,0.46169529999315273,False,near-160,34,6,2,3.75,2,down,1,0
238,2,True,0.9556708000018261,800.0,50.0,33.0,0,False,2,down,0.16666666666666666,43,0,0.7414448000054108,0.7414448000054108,0.4441944999998668,True,near-000,34,1,1,0.625,2,down,1,0
239,2,True,1.202850200003013,800.0,50.0,33.0,0,False,2,down,0.16666666666666666,43,0,0.7419169999920996,0.7419169999920996,0.6242593999922974,True,near-000,35,2,2,1.25,3,down,1,0
240,1,True,1.045567299996037,800.0,100.0,50.0,0,False,1,down,0.16666666666666666,25,0,0.43895830000110436,0.43895830000110436,0.6605486999906134,True,near-rnd2,35,2,2,1.25,2,down,1,0
241,2,True,1.0802661000052467,800.0,50.0,33.0,5,False,2,down,0.16666666666666666,33,0.09687819999817293,0.5756493000080809,0.6725275000062538,0.46820009998918977,True,near-080,35,1,1,0.625,2,down,1,0
242,2,True,4.2959393999917665,800.0,33.0,50.0,0,False,3,up,0.16666666666666666,40,0,0.6647882999968715,0.6647882999968715,1.0023542999988422,False,near-rnd3,35,14,9,8.75,1,up,4,1
243,4,True,1.076004100003047,800.0,50.0,33.0,15,False,2,down,0.16666666666666666,20,0.26184680000005756,0.3938577999942936,0.6557045999943512,0.48738869999942835,True,near-240,35,1,1,0.625,2,down,1,0
244,2,True,5.373955700008082,800.0,50.0,33.0,10,False,2,down,0.16666666666666666,23,0.17291369999293238,0.4172526000038488,0.5901662999967812,0.7091898000071524,True,near-160,35,7,3,4.375,2,down,1,0
245,1,True,1.703331500000786,800.0,50.0,33.0,10,False,2,down,0.16666666666666666,23,0.24587429998791777,0.4108035000099335,0.6566777999978513,0.36095479999494273,True,near-160,36,8,4,5.0,2,down,1,0
246,2,True,3.1862375999917276,800.0,33.0,50.0,0,False,3,up,0.16666666666666666,40,0,0.6679534000140848,0.6679534000140848,0.5023182000004454,True,near-rnd3,36,15,10,9.375,1,up,4,1
247,1,True,1.2125923999992665,800.0,50.0,33.0,5,False,2,down,0.16666666666666666,33,0.09222380000574049,0.5777125999884447,0.6699363999941852,0.845000200002687,True,near-080,36,2,2,1.25,2,down,1,0
248,2,True,1.2624077000073157,800.0,100.0,50.0,0,False,1,down,0.16666666666666666,25,0,0.4473216000042157,0.4473216000042157,0.7769900999992387,True,near-rnd2,36,3,3,1.875,2,down,1,0
249,1,True,1.3506080000079237,800.0,50.0,33.0,0,False,2,down,0.16666666666666666,43,0,0.8803146999998717,0.8803146999998717,0.41447239999251906,True,near-000,36,3,3,1.875,3,down,1,0
250,2,True,0.8737135999981547,800.0,50.0,33.0,15,False,2,down,0.16666666666666666,20,0.25440490001346916,0.3767470000020694,0.6311519000155386,0.43512140000530053,True,near-240,36,2,2,1.25,2,down,1,0
251,3,True,2.324974699993618,800.0,50.0,33.0,10,False,2,down,0.16666666666666666,23,0.18603369999618735,0.43751099999644794,0.6235446999926353,0.7442873999971198,True,near-160,37,9,5,5.625,2,down,1,1
252,3,True,0.9041064000048209,800.0,33.0,50.0,0,False,3,up,0.16666666666666666,40,0,0.6822352000017418,0.6822352000017418,1.2877150999993319,False,near-rnd3,37,16,10,10.0,1,up,4,1
253,1,True,2.4061412000010023,800.0,50.0,33.0,5,False,2,down,0.16666666666666666,33,0.09013080000295304,0.5799153999978444,0.6700462000007974,0.6511007000081008,False,near-080,37,3,2,1.875,2,down,1,0
254,2,True,2.288853399993968,800.0,100.0,50.0,0,False,1,down,0.16666666666666666,25,0,0.4608700999961002,0.4608700999961002,0.7545759999920847,True,near-rnd2,37,4,4,2.5,2,down,1,0
255,2,True,3.4473231000010855,800.0,50.0,33.0,15,False,2,down,0.16666666666666666,20,0.33605630000238307,0.36706299999787007,0.7031193000002531,1.066794200000004,True,near-240,37,3,3,1.875,2,down,1,0
256,2,True,1.3318377999967197,800.0,50.0,33.0,0,False,2,down,0.16666666666666666,43,0,0.8079430000070715,0.8079430000070715,0.31314039998687804,True,near-000,37,4,4,2.5,3,down,1,0
257,4,True,0.9477292999945348,800.0,50.0,33.0,0,False,2,down,0.16666666666666666,43,0,0.76073290000204,0.76073290000204,0.5444335000065621,True,near-000,38,5,5,3.125,3,down,1,0
258,4,True,1.0698868999897968,800.0,50.0,33.0,15,False,2,down,0.16666666666666666,20,0.27600169999641366,0.3944444999942789,0.6704461999906925,0.5049952999979723,True,near-240,38,4,4,2.5,2,down,1,0
259,1,True,3.5054799000063213,800.0,33.0,50.0,0,False,3,up,0.16666666666666666,40,0,0.6620212999987416,0.6620212999987416,0.8205262999981642,False,near-rnd3,38,17,10,10.625,1,up,4,2
260,2,True,1.147812499999418,800.0,100.0,50.0,0,False,1,down,0.16666666666666666,25,0,0.44790060000377707,0.44790060000377707,0.45037560000491794,True,near-rnd2,38,5,5,3.125,2,down,1,0
261,2,True,2.940146299995831,800.0,50.0,33.0,10,False,2,down,0.16666666666666666,23,0.18479149999620859,0.419918300001882,0.6047097999980906,0.4597170000051847,True,near-160,38,10,6,6.25,2,down,1,1
262,2,True,2.4574999999895226,800.0,50.0,33.0,5,False,2,down,0.16666666666666666,33,0.0965959000022849,0.5762621000030776,0.6728580000053626,0.6756265000003623,False,near-080,38,4,2,2.5,2,down,1,0
263,2,True,1.0011113999935333,800.0,50.0,33.0,5,False,2,down,0.16666666666666666,33,0.09232840000186116,0.5804069000005256,0.6727353000023868,0.31660429999465123,False,near-080,39,5,2,3.125,2,down,1,0
264,4,True,1.031690300005721,800.0,100.0,50.0,0,False,1,down,0.16666666666666666,25,0,0.48320719999901485,0.48320719999901485,0.5008216999995057,True,near-rnd2,39,6,6,3.75,2,down,1,0
265,3,True,0.9799453000014182,800.0,50.0,33.0,15,False,2,down,0.16666666666666666,20,0.2656079000007594,0.38486900000134483,0.6504769000021042,0.49575410000397824,True,near-240,39,5,5,3.125,2,down,1,0
266,3,True,1.0064274000033038,800.0,33.0,50.0,0,False,3,up,0.16666666666666666,40,0,0.6823581000062404,0.6823581000062404,0.711395000005723,True,near-rnd3,39,18,11,11.25,1,up,4,2
267,2,True,0.7731633999937912,800.0,50.0,33.0,10,False,2,down,0.16666666666666666,23,0.17394350000540726,0.4160165999928722,0.5899600999982795,0.5737815999891609,True,near-160,39,11,7,6.875,2,down,1,1
268,2,True,1.406281299990951,800.0,50.0,33.0,0,False,2,down,0.16666666666666666,43,0,0.736963499992271,0.736963499992271,0.6462347000051523,True,near-000,39,6,6,3.75,3,down,1,0
269,4,True,1.1057197000045562,800.0,50.0,33.0,10,False,2,down,0.16666666666666666,23,0.19570820000080857,0.4483903999935137,0.6440985999943223,0.39580889999342617,True,near-160,40,12,8,7.5,2,down,1,1
270,2,True,1.2308621000120183,800.0,100.0,50.0,0,False,1,down,0.16666666666666666,24,0,0.4279982000007294,0.4279982000007294,0.62575389999256,True,near-rnd2,40,1,1,0.625,2,down,1,0
271,2,True,1.2879102000006242,800.0,50.0,33.0,0,False,2,down,0.16666666666666666,43,0,0.7312398999929428,0.7312398999929428,0.4468920000072103,True,near-000,40,7,7,4.375,3,down,1,0
272,1,True,1.5959793999936664,800.0,33.0,50.0,0,False,3,up,0.16666666666666666,40,0,0.6661887000082061,0.6661887000082061,0.9223372999986168,True,near-rnd3,40,19,12,11.875,1,up,4,2
273,2,True,1.0032139000104507,800.0,50.0,33.0,15,False,2,down,0.16666666666666666,20,0.2613939000002574,0.3806061000068439,0.6420000000071013,0.6115920999873197,True,near-240,40,6,6,3.75,2,down,1,0
274,1,True,2.760164299994358,800.0,50.0,33.0,5,False,2,down,0.16666666666666666,33,0.09203790000174195,0.5698234000010416,0.6618613000027835,0.8117132999905152,True,near-080,40,6,3,3.75,2,down,1,0
275,1,True,3.2189608000044245,800.0,50.0,33.0,15,False,2,down,0.16666666666666666,19,0.2491188999993028,0.3499450999952387,0.5990639999945415,0.46770040001138113,True,near-240,41,1,1,0.625,2,down,2,0
276,2,True,1.3857961000030627,800.0,50.0,33.0,0,False,2,down,0.16666666666666666,43,0,0.7336646000039764,0.7336646000039764,0.8062157000094885,True,near-000,41,8,8,5.0,3,down,1,0
277,1,True,2.517655100004049,800.0,50.0,33.0,5,False,2,down,0.16666666666666666,33,0.08976699999766424,0.5718450999993365,0.6616120999970008,1.0240061999938916,False,near-080,41,7,3,4.375,2,down,1,0
278,1,True,1.0059524999960558,800.0,33.0,50.0,0,False,3,up,0.16666666666666666,40,0,0.6616271999955643,0.6616271999955643,0.41048230000888,True,near-rnd3,41,20,13,12.5,1,up,4,2
279,3,True,1.6188136999990093,800.0,100.0,50.0,0,False,1,down,0.16666666666666666,24,0,0.4540309000003617,0.4540309000003617,1.2702799000107916,False,near-rnd2,41,2,1,1.25,2,down,1,0
280,1,True,3.878465800007689,800.0,50.0,33.0,10,False,2,down,0.16666666666666666,23,0.1696032999898307,0.41263160000380594,0.5822348999936366,0.881973299998208,True,near-160,41,13,9,8.125,2,down,1,1
281,3,True,1.5210114999936195,800.0,50.0,33.0,5,False,2,down,0.16666666666666666,33,0.10919810000632424,0.5898597999912454,0.6990578999975696,0.3506663000007393,True,near-080,42,8,4,5.0,2,down,1,0
282,1,True,1.0867227999988245,800.0,100.0,50.0,0,False,1,down,0.16666666666666666,24,0,0.4285855999914929,0.4285855999914929,0.4347740000084741,True,near-rnd2,42,3,2,1.875,2,down,1,0
283,2,True,1.2016686999995727,800.0,33.0,50.0,0,False,3,up,0.16666666666666666,40,0,0.6758872999926098,0.6758872999926098,2.2309263000061037,True,near-rnd3,42,21,14,13.125,1,up,4,2
284,4,True,1.0621433000051184,800.0,50.0,33.0,10,False,2,down,0.16666666666666666,23,0.1957844999997178,0.43598609999753535,0.6317705999972532,0.8993317999993451,False,near-160,42,14,9,8.75,2,down,1,1
285,2,True,3.5458981999981916,800.0,50.0,33.0,15,False,2,down,0.16666666666666666,19,0.25803180001094006,0.3710116000002017,0.6290434000111418,1.2028442000009818,False,near-240,42,2,1,1.25,2,down,2,0
286,3,True,1.1949832999962382,800.0,50.0,33.0,5,False,2,down,0.16666666666666666,33,0.10417799999413546,0.6009835000004387,0.7051614999945741,0.4366868999932194,False,near-080,43,9,4,5.625,2,down,1,1
287,2,True,1.6745354000013322,800.0,33.0,50.0,0,False,3,up,0.16666666666666666,40,0,0.6675184000050649,0.6675184000050649,0.988646300000255,False,near-rnd3,43,22,14,13.75,1,up,4,2
288,1,True,1.3814388000027975,800.0,100.0,50.0,0,False,1,down,0.16666666666666666,24,0,0.4204698000103235,0.4204698000103235,0.5631289000011748,True,near-rnd2,43,4,3,2.5,2,down,1,0
289,2,True,1.037621899988153,800.0,50.0,33.0,15,False,2,down,0.16666666666666666,19,0.2611501000064891,0.36512310001126025,0.6262732000177493,0.5243975000048522,True,near-240,43,3,2,1.875,2,down,2,0
290,2,True,1.216650300004403,800.0,50.0,33.0,10,False,2,down,0.16666666666666666,23,0.17207549999875482,0.4270301000069594,0.5991056000057142,0.4427122000051895,True,near-160,43,15,10,9.375,2,down,1,1
291,3,True,0.946523899998283,800.0,100.0,50.0,0,False,1,down,0.16666666666666666,24,0,0.4482270000007702,0.4482270000007702,0.4166983000031905,True,near-rnd2,44,5,4,3.125,2,down,1,0
292,2,True,1.2983932000061031,800.0,50.0,33.0,10,False,2,down,0.16666666666666666,23,0.17396879999432713,0.4227011000039056,0.5966698999982327,0.4116687999921851,True,near-160,44,16,11,10.0,2,down,1,1
293,3,True,0.973452799997176,800.0,33.0,50.0,0,False,3,up,0.16666666666666666,40,0,0.6784626000007847,0.6784626000007847,0.9642127999977674,True,near-rnd3,44,23,15,14.375,1,up,4,2
294,4,True,2.2006440999975894,800.0,50.0,33.0,15,False,2,down,0.16666666666666666,19,0.41391139999905135,0.36971850000554696,0.7836299000045983,0.6763853000011295,False,near-240,44,4,2,2.5,2,down,2,0
295,3,True,1.2973739000008209,800.0,50.0,33.0,5,False,2,down,0.16666666666666666,33,0.10324260000197683,0.5865524999971967,0.6897950999991735,0.4315080999949714,True,near-080,44,10,5,6.25,2,down,1,1
296,4,True,0.8956226000009337,800.0,50.0,33.0,15,False,2,down,0.16666666666666666,19,0.36678810000012163,0.3682546000054572,0.7350427000055788,0.3442693999968469,True,near-240,45,5,3,3.125,2,down,2,0
297,2,True,3.4936429999943357,800.0,33.0,50.0,0,False,3,up,0.16666666666666666,40,0,0.6671167000022251,0.6671167000022251,0.7710172999941278,False,near-rnd3,45,24,15,15.0,1,up,4,2
298,3,True,1.394160900003044,800.0,100.0,50.0,0,False,1,down,0.16666666666666666,24,0,0.4386728999961633,0.4386728999961633,0.750284300011117,True,near-rnd2,45,6,5,3.75,2,down,1,0
299,3,True,1.5416467000031844,800.0,50.0,33.0,5,False,2,down,0.16666666666666666,33,0.09457889999612235,0.5888489999924786,0.683427899988601,0.4797208999953,True,near-080,45,11,6,6.875,2,down,1,1
300,1,True,1.7963768000045093,800.0,33.0,50.0,0,False,3,up,0.16666666666666666,40,0,0.6618057000014232,0.6618057000014232,0.7863276999996742,True,near-rnd3,46,25,16,15.625,1,up,4,3
301,2,True,0.9339087999978801,800.0,100.0,50.0,0,False,1,down,0.16666666666666666,24,0,0.43043069999839645,0.43043069999839645,0.48511349999171216,True,near-rnd2,46,7,6,4.375,2,down,1,0
302,1,True,0.8687430000136374,800.0,50.0,33.0,15,False,2,down,0.16666666666666666,19,0.25359530000423547,0.3432291999924928,0.5968244999967283,0.40238460000546183,True,near-240,46,6,4,3.75,2,down,2,0
303,4,True,1.282099100004416,800.0,50.0,33.0,5,False,2,down,0.16666666666666666,33,0.11121779998939019,0.6010516999958782,0.7122694999852683,0.7335209000011673,True,near-080,46,12,7,7.5,2,down,1,1
304,2,True,1.0088780999940354,800.0,100.0,50.0,0,False,1,down,0.16666666666666666,24,0,0.4360007999930531,0.4360007999930531,0.5427281000011135,True,near-rnd2,47,8,7,5.0,2,down,1,0
305,1,True,1.0030836000078125,800.0,33.0,50.0,0,False,3,up,0.16666666666666666,40,0,0.661607100002584,0.661607100002584,0.9330367999937152,True,near-rnd3,47,26,17,16.25,1,up,4,3
306,2,True,0.9250788999925135,800.0,50.0,33.0,15,False,2,down,0.16666666666666666,19,0.25388839999504853,0.3598052000015741,0.6136935999966227,0.4343019999942044,True,near-240,47,7,5,4.375,2,down,2,0
307,1,True,1.3593249999976251,800.0,50.0,33.0,5,False,2,down,0.16666666666666666,33,0.08645639999303967,0.5749648999917554,0.661421299984795,0.3659114999900339,True,near-080,47,13,8,8.125,2,down,1,1
308,3,True,2.640901100006886,800.0,50.0,33.0,15,False,2,down,0.16666666666666666,19,0.26913210000202525,0.35828669999318663,0.6274187999952119,0.37436210000305437,True,near-240,48,8,6,5.0,2,down,2,0
309,3,True,2.1484712999954354,800.0,33.0,50.0,0,False,3,up,0.16666666666666666,40,0,0.6900786999904085,0.6900786999904085,0.7215456999983871,True,near-rnd3,48,27,18,16.875,1,up,4,3
310,3,True,0.7858068000059575,800.0,50.0,33.0,5,False,2,down,0.16666666666666666,33,0.1052200999984052,0.5874028999969596,0.6926229999953648,0.345542100010789,True,near-080,48,14,9,8.75,2,down,1,1
311,3,True,1.3333965000056196,800.0,100.0,50.0,0,False,1,down,0.16666666666666666,24,0,0.4493503999983659,0.4493503999983659,0.4333318999997573,True,near-rnd2,48,9,8,5.625,2,down,1,1
312,1,True,1.2309756000031484,800.0,50.0,33.0,5,False,2,down,0.16666666666666666,33,0.08822730000247248,0.5748343000013847,0.6630616000038572,0.5205808999889996,True,near-080,49,15,10,9.375,2,down,1,1
313,2,True,0.9440892999991775,800.0,50.0,33.0,15,False,2,down,0.16666666666666666,19,0.26151959999697283,0.3617136999964714,0.6232332999934442,0.4146564999973634,True,near-240,49,9,7,5.625,2,down,2,1
314,2,True,1.0571828999964055,800.0,100.0,50.0,0,False,1,down,0.16666666666666666,23,0,0.4236860999953933,0.4236860999953933,0.4344666000106372,True,near-rnd2,49,1,1,0.625,2,down,1,0
315,2,True,1.362599100000807,800.0,50.0,33.0,5,False,2,down,0.16666666666666666,33,0.09133130000554956,0.5796027999895159,0.6709340999950655,0.4977921999961836,True,near-080,50,16,11,10.0,2,down,1,1
316,2,True,1.0262186000036309,800.0,100.0,50.0,0,False,1,down,0.16666666666666666,23,0,0.42438379999657627,0.42438379999657627,0.6138933000038378,True,near-rnd2,50,2,2,1.25,2,down,1,0
317,1,True,1.6610193000087747,800.0,50.0,33.0,15,False,2,down,0.16666666666666666,19,0.2501706000039121,0.398462400000426,0.6486330000043381,0.38155510000069626,True,near-240,50,10,8,6.25,2,down,2,1
318,2,True,0.7334944000031101,800.0,100.0,50.0,0,False,1,down,0.16666666666666666,23,0,0.4247885000077076,0.4247885000077076,0.5883930999989389,False,near-rnd2,51,3,2,1.875,2,down,1,0
319,1,True,1.5423273999913363,800.0,50.0,33.0,15,False,2,down,0.16666666666666666,19,0.24751159999868833,0.3443427000020165,0.5918543000007048,0.3970391000038944,True,near-240,51,11,9,6.875,2,down,2,1
320,2,True,1.2409840999898734,800.0,100.0,50.0,0,False,1,down,0.16666666666666666,23,0,0.41649959998903796,0.41649959998903796,0.5492602999875089,True,near-rnd2,52,4,3,2.5,2,down,1,0
321,2,True,0.9588594999950146,800.0,50.0,33.0,15,False,2,down,0.16666666666666666,18,0.2554117999970913,0.3444889999955194,0.5999007999926107,0.5879529999947408,True,near-240,52,1,1,0.625,2,down,2,0
322,3,True,0.8084329999983311,800.0,50.0,33.0,15,False,2,down,0.16666666666666666,18,0.2663375999982236,0.3473729999968782,0.6137105999951018,0.534432200001902,True,near-240,53,2,2,1.25,2,down,2,0
323,3,True,2.3524718999979086,800.0,100.0,50.0,0,False,1,down,0.16666666666666666,23,0,0.4229293999960646,0.4229293999960646,0.592576499999268,True,near-rnd2,53,5,4,3.125,2,down,1,0
324,1,True,1.997786099993391,800.0,100.0,50.0,0,False,1,down,0.16666666666666666,23,0,0.4084785000013653,0.4084785000013653,0.34676179999951273,True,near-rnd2,54,6,5,3.75,2,down,1,0
325,2,True,1.507282699996722,800.0,50.0,33.0,15,False,2,down,0.16666666666666666,18,0.2614898999891011,0.3484000000025844,0.6098898999916855,0.29502449999563396,True,near-240,54,3,3,1.875,2,down,2,0
326,2,True,1.0403572999930475,800.0,50.0,33.0,15,False,2,down,0.16666666666666666,18,0.25190329999895766,0.33224479999626055,0.5841480999952182,0.3666456999926595,True,near-240,55,4,4,2.5,2,down,2,0
327,4,True,0.9330484999954933,800.0,100.0,50.0,0,False,1,down,0.16666666666666666,23,0,0.49928589999035466,0.49928589999035466,0.3873429999948712,True,near-rnd2,55,7,6,4.375,2,down,1,0
328,1,True,1.3987039999919944,800.0,50.0,33.0,15,False,2,down,0.16666666666666666,18,0.2509261999948649,0.3364320999971824,0.5873582999920473,1.0510234999965178,True,near-240,56,5,5,3.125,2,down,2,0
329,3,True,0.750104899998405,800.0,100.0,50.0,0,False,1,down,0.16666666666666666,23,0,0.42298489999666344,0.42298489999666344,0.5941315999953076,False,near-rnd2,56,8,6,5.0,2,down,1,0
330,2,True,1.0732330000028014,800.0,50.0,33.0,15,False,2,down,0.16666666666666666,18,0.2537784999876749,0.3479337000026135,0.6017121999902884,0.4152365999907488,True,near-240,57,6,6,3.75,2,down,2,0
331,1,True,1.2292252000042936,800.0,100.0,50.0,0,False,1,down,0.16666666666666666,23,0,0.4069783000013558,0.4069783000013558,2.0472053999983473,True,near-rnd2,57,9,7,5.625,2,down,1,1
332,3,True,1.096628300001612,800.0,100.0,50.0,0,False,1,down,0.16666666666666666,23,0,0.4356722999946214,0.4356722999946214,0.5292776999995112,True,near-rnd2,58,10,8,6.25,2,down,1,1
333,2,True,0.8750943000050029,800.0,50.0,33.0,15,False,2,down,0.16666666666666666,16,0.26027100000646897,0.31154400001105387,0.5718150000175228,0.3566913999966346,True,near-240,58,1,1,0.625,2,down,4,0
334,2,True,0.7616550000093412,800.0,50.0,33.0,15,False,2,down,0.16666666666666666,16,0.2527152999973623,0.3123322999890661,0.5650475999864284,0.23318460000155028,False,near-240,59,2,1,1.25,1,down,4,0
335,4,True,1.3149193999997806,800.0,100.0,50.0,0,False,1,down,0.16666666666666666,23,0,0.4367872000002535,0.4367872000002535,0.47160590000567026,True,near-rnd2,59,11,9,6.875,2,down,1,1
336,3,True,1.0718637000099989,800.0,100.0,50.0,0,False,1,down,0.16666666666666666,22,0,0.4226092000026256,0.4226092000026256,0.3891230000008363,True,near-rnd2,60,1,1,0.625,2,down,1,0
337,1,True,0.9631790999992518,800.0,50.0,33.0,15,False,2,down,0.16666666666666666,16,0.24865169999247883,0.303932499999064,0.5525841999915428,0.6613915000052657,True,near-240,60,3,2,1.875,1,down,4,0
338,3,True,1.2426907000044594,800.0,50.0,33.0,15,False,2,down,0.16666666666666666,16,0.26050600000598934,0.31194879999384284,0.5724547999998322,0.5972279999987222,True,near-240,61,4,3,2.5,1,down,4,0
339,2,True,1.1307697000011103,800.0,100.0,50.0,0,False,1,down,0.16666666666666666,22,0,0.4091781000024639,0.4091781000024639,0.5526629999949364,True,near-rnd2,61,2,2,1.25,2,down,1,0
340,2,True,1.1543776000034995,800.0,100.0,50.0,0,False,1,down,0.16666666666666666,22,0,0.40445280000858475,0.40445280000858475,1.129400199992233,False,near-rnd2,62,3,2,1.875,2,down,1,0
341,1,True,1.0630746999959229,800.0,50.0,33.0,15,False,2,down,0.16666666666666666,16,0.2511464999988675,0.3100594999996247,0.5612059999984922,0.4931180999992648,True,near-240,62,5,4,3.125,1,down,4,0
342,1,True,1.0986559999873862,800.0,100.0,50.0,0,False,1,down,0.16666666666666666,22,0,0.3909655000024941,0.3909655000024941,0.6240561000013258,True,near-rnd2,63,4,3,2.5,2,down,1,0
343,1,True,1.0786656999989646,800.0,50.0,33.0,15,False,2,down,0.16666666666666666,16,0.250923600004171,0.3052625000127591,0.5561861000169301,0.5034324000007473,True,near-240,63,6,5,3.75,1,down,4,0
344,2,True,0.9129296000028262,800.0,50.0,33.0,15,False,2,down,0.16666666666666666,12,0.2531137000041781,0.2468512999912491,0.4999649999954272,0.5352322999970056,True,near-240,64,1,1,0.625,1,down,8,0
345,1,True,1.0969963000097778,800.0,100.0,50.0,0,False,1,down,0.16666666666666666,22,0,0.39518340000358876,0.39518340000358876,0.4878593000030378,False,near-rnd2,64,5,3,3.125,2,down,1,0
346,2,True,0.8704531999974279,800.0,100.0,50.0,0,False,1,down,0.16666666666666666,22,0,0.4131220999988727,0.4131220999988727,0.5832189000066137,True,near-rnd2,65,6,4,3.75,2,down,1,0
347,4,True,2.276010200002929,800.0,50.0,33.0,15,False,2,down,0.16666666666666666,12,0.2578003999951761,0.2563592999940738,0.5141596999892499,0.7217816999909701,True,near-240,65,2,2,1.25,1,down,8,0
348,1,True,2.316435399989132,800.0,100.0,50.0,0,False,1,down,0.16666666666666666,22,0,0.3922240999963833,0.3922240999963833,0.8506909999996424,True,near-rnd2,66,7,5,4.375,2,down,1,0
349,1,True,0.9914836999960244,800.0,50.0,33.0,15,False,2,down,0.16666666666666666,12,0.2504222999996273,0.24720319999323692,0.4976254999928642,0.4783481999911601,True,near-240,66,3,3,1.875,1,down,8,0
350,2,True,0.8789222000050358,800.0,100.0,50.0,0,False,1,down,0.16666666666666666,22,0,0.410800300000119,0.410800300000119,0.3992663000099128,True,near-rnd2,67,8,6,5.0,2,down,1,0
351,1,True,1.6560430000099586,800.0,50.0,33.0,15,False,2,down,0.16666666666666666,4,0.2507285000028787,0.1082213000045158,0.3589498000073945,0.9686841000075219,True,near-240,67,1,1,0.625,1,down,16,0
352,2,True,1.3378515999938827,800.0,100.0,50.0,0,False,1,down,0.16666666666666666,22,0,0.41214830000535585,0.41214830000535585,0.49356109999644104,True,near-rnd2,68,9,7,5.625,2,down,1,1
353,2,True,0.9516279000090435,800.0,50.0,33.0,15,False,2,down,0.16666666666666666,4,0.25532229999953415,0.11861019999196287,0.373932499991497,1.158528900006786,False,near-240,68,2,1,1.25,1.0,down,16,0
354,1,True,1.3619302000006428,800.0,100.0,50.0,0,False,1,down,0.16666666666666666,22,0,0.3921857999957865,0.3921857999957865,1.5206153000035556,False,near-rnd2,69,10,7,6.25,2,down,1,1
355,4,True,1.3014217999880202,800.0,50.0,33.0,15,False,2,down,0.16666666666666666,4,0.27430720000120346,0.1364375000121072,0.41074470001331065,0.5588741999963531,False,near-240,69,3,1,1.875,1.0,down,16,0
356,3,True,1.0955257000023266,800.0,100.0,50.0,0,False,1,down,0.16666666666666666,22,0,0.4102616999880411,0.4102616999880411,0.3978601999988314,True,near-rnd2,70,11,8,6.875,2,down,1,1
357,2,True,1.1124297000060324,800.0,50.0,33.0,15,False,2,up,0.16666666666666666,20,0.254085100008524,0.3814453999948455,0.6355305000033695,0.37697890000708867,False,near-240,70,1,0,0.625,0.5,up,8,0
358,4,True,1.1815789999964181,800.0,50.0,33.0,15,False,2,up,0.16666666666666666,20,0.27189540000108536,0.38262619999295566,0.654521599994041,0.5451859999884618,True,near-240,71,2,1,1.25,1,up,8,0
359,1,True,0.9243977000005543,800.0,100.0,50.0,0,False,1,down,0.16666666666666666,22,0,0.3992324999999255,0.3992324999999255,0.5781808000028832,True,near-rnd2,71,12,9,7.5,2,down,1,1
360,3,True,0.9368878999957815,800.0,50.0,33.0,15,False,2,up,0.16666666666666666,20,0.2652883999980986,0.3779091000033077,0.6431975000014063,0.3603334000072209,False,near-240,72,3,1,1.875,1,up,8,0
361,1,True,1.3418471000040881,800.0,100.0,50.0,0,False,1,down,0.16666666666666666,22,0,0.39225509999960195,0.39225509999960195,1.6837363000086043,True,near-rnd2,72,13,10,8.125,2,down,1,1
362,3,True,1.4222523999924306,800.0,100.0,50.0,0,False,1,down,0.16666666666666666,22,0,0.4074107000051299,0.4074107000051299,0.6171385000052396,True,near-rnd2,73,14,11,8.75,2,down,1,1
363,1,True,1.4778717000008328,800.0,50.0,33.0,15,False,2,up,0.16666666666666666,20,0.2496534999954747,0.3698566000093706,0.6195101000048453,0.3904595999920275,True,near-240,73,4,2,2.5,1,up,8,0
364,2,True,1.3313468999986071,800.0,100.0,50.0,0,False,1,down,0.16666666666666666,21,0,0.3883822999923723,0.3883822999923723,0.49289239999779966,True,near-rnd2,74,1,1,0.625,2,down,1,0
365,1,True,1.7693337999953656,800.0,50.0,33.0,15,False,2,up,0.16666666666666666,20,0.24741219999850728,0.3634252000047127,0.61083740000322,0.4428675000090152,True,near-240,74,5,3,3.125,1,up,8,0
366,1,True,1.1118406000023242,800.0,100.0,50.0,0,False,1,down,0.16666666666666666,21,0,0.381917999999132,0.381917999999132,0.8166399000037927,True,near-rnd2,75,2,2,1.25,2,down,1,0
367,4,True,1.4880902000004426,800.0,50.0,33.0,15,False,2,up,0.16666666666666666,20,0.2632129000121495,0.39350170000398066,0.6567146000161301,0.37158460001228377,True,near-240,75,6,4,3.75,1,up,8,0
368,1,True,1.849024199997075,800.0,50.0,33.0,15,False,2,up,0.16666666666666666,20,0.2526450999866938,0.3742055999900913,0.6268506999767851,0.5309278999920934,True,near-240,76,7,5,4.375,1,up,8,0
369,1,True,1.2692443999985699,800.0,100.0,50.0,0,False,1,down,0.16666666666666666,21,0,0.3877005999966059,0.3877005999966059,0.6953378000034718,False,near-rnd2,76,3,2,1.875,2,down,1,0
370,1,True,1.1757473000034224,800.0,100.0,50.0,0,False,1,down,0.16666666666666666,21,0,0.3819906999997329,0.3819906999997329,0.4892018999962602,True,near-rnd2,77,4,3,2.5,2,down,1,0
371,3,True,1.158518299998832,800.0,50.0,33.0,15,False,2,up,0.16666666666666666,20,0.2570947000058368,0.3798141000006581,0.6369088000064949,0.4004399000114063,True,near-240,77,8,6,5.0,1,up,8,0
372,1,True,1.0271263000031468,800.0,100.0,50.0,0,False,1,down,0.16666666666666666,21,0,0.3745023000083165,0.3745023000083165,0.521366200002376,True,near-rnd2,78,5,4,3.125,2,down,1,0
373,2,True,1.564206800001557,800.0,50.0,33.0,15,False,2,up,0.16666666666666666,20,0.25969989999430254,0.3711565999983577,0.6308564999926602,0.34727559999737423,True,near-240,78,9,7,5.625,1,up,8,1
374,2,True,1.6489268000004813,800.0,50.0,33.0,15,False,2,down,0.16666666666666666,16,0.25896609999472275,0.3177824000013061,0.5767484999960288,0.3980894999986049,True,near-240,79,1,1,0.625,1,down,2,0
375,1,True,1.5368344000016805,800.0,100.0,50.0,0,False,1,down,0.16666666666666666,21,0,0.372926500000176,0.372926500000176,0.4676251000055345,True,near-rnd2,79,6,5,3.75,2,down,1,0
376,1,True,1.3620258000009926,800.0,50.0,33.0,15,False,2,down,0.16666666666666666,16,0.2540039000014076,0.3046352000092156,0.5586391000106232,0.5634128999954555,True,near-240,80,2,2,1.25,2,down,2,0
377,1,True,0.8622948999982327,800.0,100.0,50.0,0,False,1,down,0.16666666666666666,21,0,0.3798406999994768,0.3798406999994768,0.764981500004069,True,near-rnd2,80,7,6,4.375,2,down,1,0
378,1,True,1.3158905000018422,800.0,50.0,33.0,15,False,2,down,0.16666666666666666,16,0.25045150000369176,0.30605579999974,0.5565073000034317,0.32346319999487605,True,near-240,81,3,3,1.875,2,down,2,0
379,2,True,1.1500812000012957,800.0,100.0,50.0,0,False,1,down,0.16666666666666666,21,0,0.39323960000183433,0.39323960000183433,0.5125805999996373,True,near-rnd2,81,8,7,5.0,2,down,1,0
380,2,True,1.1236719000007724,800.0,100.0,50.0,0,False,1,down,0.16666666666666666,21,0,0.3860878999985289,0.3860878999985289,0.46899900000425987,True,near-rnd2,82,9,8,5.625,2,down,1,1
381,1,True,1.9623625999956857,800.0,50.0,33.0,15,False,2,down,0.16666666666666666,16,0.2487057999969693,0.3012617000058526,0.5499675000028219,1.6534920999984024,False,near-240,82,4,3,2.5,2,down,2,0
382,4,True,0.9546387000009418,800.0,100.0,50.0,0,False,1,down,0.16666666666666666,20,0,0.39856470000813715,0.39856470000813715,0.3180009999923641,True,near-rnd2,83,1,1,0.625,2,down,1,0
383,1,True,0.9301613999996334,800.0,50.0,33.0,15,False,2,down,0.16666666666666666,16,0.24679620000824798,0.30009969999082386,0.5468958999990718,1.4930959999910556,False,near-240,83,5,3,3.125,2,down,2,0
384,1,True,1.393251399989822,800.0,50.0,33.0,15,False,2,down,0.16666666666666666,16,0.2524360999959754,0.3050842999946326,0.557520399990608,3.2184033999947133,True,near-240,84,6,4,3.75,2,down,2,0
385,3,True,1.4308790000068257,800.0,100.0,50.0,0,False,1,down,0.16666666666666666,20,0,0.3927820000099018,0.3927820000099018,0.6590919999871403,True,near-rnd2,84,2,2,1.25,2,down,1,0
386,1,True,1.3986511999974027,800.0,50.0,33.0,15,False,2,down,0.16666666666666666,16,0.2522723000001861,0.29647010000189766,0.5487424000020837,1.1660714000026928,False,near-240,85,7,4,4.375,2,down,2,0
387,3,True,1.2352500000124564,800.0,100.0,50.0,0,False,1,down,0.16666666666666666,20,0,0.38051679999625776,0.38051679999625776,0.43684499998926185,True,near-rnd2,85,3,3,1.875,2,down,1,0
388,2,True,1.2307834999955958,800.0,50.0,33.0,15,False,2,down,0.16666666666666666,16,0.25837959999626037,0.3040614000055939,0.5624410000018543,0.8440869000041857,True,near-240,86,8,5,5.0,2,down,2,0
389,2,True,1.3361404000024777,800.0,100.0,50.0,0,False,1,down,0.16666666666666666,20,0,0.4467696000065189,0.4467696000065189,0.3934071999974549,True,near-rnd2,86,4,4,2.5,2,down,1,0
390,1,True,1.7388607000029879,800.0,50.0,33.0,15,False,2,down,0.16666666666666666,16,0.25011940000695176,0.29938989999936894,0.5495093000063207,0.5712191999919014,True,near-240,87,9,6,5.625,2,down,2,1
391,5,True,1.0470472000015434,800.0,100.0,50.0,0,False,1,down,0.16666666666666666,20,0,0.4030672999942908,0.4030672999942908,0.5064144999923883,True,near-rnd2,87,5,5,3.125,2,down,1,0
392,2,True,1.3112526000040816,800.0,100.0,50.0,0,False,1,down,0.16666666666666666,20,0,0.36654010000347625,0.36654010000347625,0.4120976999984123,True,near-rnd2,88,6,6,3.75,2,down,1,0
393,4,True,3.260031399986474,800.0,50.0,33.0,15,False,2,down,0.16666666666666666,16,0.2782269999879645,0.3186310000019148,0.5968579999898793,1.0516824999940582,False,near-240,88,10,6,6.25,2,down,2,1
394,3,True,1.1491251999977976,800.0,50.0,33.0,15,False,2,down,0.16666666666666666,16,0.26862819999223575,0.32641809999768157,0.5950462999899173,0.6834954999940237,True,near-240,89,11,7,6.875,2,down,2,1
395,1,True,2.6027450999972643,800.0,100.0,50.0,0,False,1,down,0.16666666666666666,19,0,0.34308649999729823,0.34308649999729823,0.6202787999936845,True,near-rnd2,89,1,1,0.625,2,down,2,0
396,1,True,1.639285999990534,800.0,100.0,50.0,0,False,1,down,0.16666666666666666,19,0,0.34746210000594147,0.34746210000594147,0.7474181999859866,True,near-rnd2,90,2,2,1.25,2,down,2,0
397,1,True,1.0561203999968711,800.0,50.0,33.0,15,False,2,down,0.16666666666666666,16,0.2524559000012232,0.30404480001016054,0.5565007000113837,0.7269876999926055,True,near-240,90,12,8,7.5,2,down,2,1
398,1,True,3.334413400007179,800.0,50.0,33.0,15,False,2,down,0.16666666666666666,16,0.2489439999917522,0.30050959999789484,0.549453599989647,0.6216248999990057,True,near-240,91,13,9,8.125,2,down,2,1
399,2,True,1.1018992000026628,800.0,100.0,50.0,0,False,1,down,0.16666666666666666,19,0,0.36118889998761006,0.36118889998761006,0.5764991999894846,False,near-rnd2,91,3,2,1.875,2,down,2,0
400,2,True,0.7636745000054361,800.0,100.0,50.0,0,False,1,down,0.16666666666666666,19,0,0.36202630000479985,0.36202630000479985,0.6688219000061508,True,near-rnd2,92,4,3,2.5,2,down,2,0
401,1,True,1.1861920999945141,800.0,50.0,33.0,15,False,2,down,0.16666666666666666,16,0.25304250000044703,0.30162910000944976,0.5546716000098968,0.8397802999970736,False,near-240,92,14,9,8.75,2,down,2,1
402,1,True,2.521082999999635,800.0,50.0,33.0,15,False,2,down,0.16666666666666666,16,0.24836230000073556,0.30448900000192225,0.5528513000026578,1.4014630000019679,True,near-240,93,15,10,9.375,2,down,2,1
403,2,True,1.2410846999991918,800.0,100.0,50.0,0,False,1,down,0.16666666666666666,19,0,0.3537432000011904,0.3537432000011904,0.5118087000009837,True,near-rnd2,93,5,4,3.125,2,down,2,0
404,2,True,0.9210686000005808,800.0,50.0,33.0,15,False,2,down,0.16666666666666666,16,0.2583658999938052,0.33290689998830203,0.5912727999821072,0.3776928000006592,True,near-240,94,16,11,10.0,2,down,2,1
405,3,True,1.6191443999996409,800.0,100.0,50.0,0,False,1,down,0.16666666666666666,19,0,0.3560379999980796,0.3560379999980796,0.4605429999937769,True,near-rnd2,94,6,5,3.75,2,down,2,0
406,3,True,1.2231885999935912,800.0,50.0,33.0,15,False,2,down,0.16666666666666666,16,0.26005010001244955,0.32404620001034345,0.584096300022793,0.6441039999917848,False,near-240,95,17,11,10.625,2,down,2,2
407,2,True,1.2448498999874573,800.0,100.0,50.0,0,False,1,down,0.16666666666666666,19,0,0.35718860001361463,0.35718860001361463,0.42240769999625627,True,near-rnd2,95,7,6,4.375,2,down,2,0
408,1,True,1.4874052000086522,800.0,100.0,50.0,0,False,1,down,0.16666666666666666,19,0,0.3445486999989953,0.3445486999989953,0.8463806999934604,False,near-rnd2,96,8,6,5.0,2,down,2,0
409,2,True,1.5430425999948056,800.0,50.0,33.0,15,False,2,down,0.16666666666666666,16,0.2570982000033837,0.30354789999546483,0.5606460999988485,2.1972372000018368,True,near-240,96,18,12,11.25,2,down,2,2
410,2,True,1.049145500001032,800.0,100.0,50.0,0,False,1,down,0.16666666666666666,19,0,0.35953560000052676,0.35953560000052676,0.7293086999998195,True,near-rnd2,97,9,7,5.625,2,down,2,1
411,1,True,1.9755981999915093,800.0,50.0,33.0,15,False,2,down,0.16666666666666666,16,0.24910359999921639,0.2987089000089327,0.5478125000081491,0.7898215000022901,False,near-240,97,19,12,11.875,2,down,2,2
412,3,True,1.0605685000045924,800.0,50.0,33.0,15,False,2,down,0.16666666666666666,16,0.3200107000011485,0.3224954000033904,0.6425061000045389,0.7243961000058334,False,near-240,98,20,12,12.5,2,down,2,2
413,1,True,1.20698529999936,800.0,100.0,50.0,0,False,1,down,0.16666666666666666,19,0,0.34175150000373833,0.34175150000373833,1.0136651000066195,True,near-rnd2,98,10,8,6.25,2,down,2,1
414,3,True,1.1000777000008384,800.0,100.0,50.0,0,False,1,down,0.16666666666666666,19,0,0.35951970001042355,0.35951970001042355,0.559016100000008,False,near-rnd2,99,11,8,6.875,2,down,2,1
415,2,True,0.791542599996319,800.0,50.0,33.0,15,False,2,down,0.16666666666666666,16,0.26339009999355767,0.311693199997535,0.5750832999910926,0.5719375999906333,True,near-240,99,21,13,13.125,2,down,2,2
416,2,True,0.9849845999997342,800.0,100.0,50.0,0,False,1,down,0.16666666666666666,19,0,0.36754589999327436,0.36754589999327436,0.40643980000459123,True,near-rnd2,100,12,9,7.5,2,down,2,1
417,1,True,4.106445500001428,800.0,50.0,33.0,15,False,2,down,0.16666666666666666,16,0.2528711999912048,0.30389629999990575,0.5567674999911105,0.7106880999926943,False,near-240,100,22,13,13.75,2,down,2,2
