trial,primeIter,primeCorrect,primeTime,primeDepth,stimDepth,extraDepth,driveFrames,nearToFar,diopters,direction,size,intensity,extraLatency,mainLatency,totalLatency,responseTime,correct,caseLabel,caseTrial,trialsAtStep,stepCorrect,expected,w,direction,stepsize,stepChange
1,2,True,2.0792255999986082,800.0,33.0,50.0,0,False,3,start,0.16666666666666666,60,0,0.9977877000055742,0.9977877000055742,0.3635315999854356,True,near-rnd3,1,1,1,0.625,0.5,start,16,0
2,2,True,2.3200132999918424,800.0,50.0,33.0,15,False,2,start,0.16666666666666666,60,0.2579128000070341,1.1290603000088595,1.3869731000158936,0.08762360000400804,True,near-240,1,1,1,0.625,0.5,start,16,0
3,4,True,0.9679725000169128,800.0,50.0,33.0,5,False,2,start,0.16666666666666666,60,0.1202155000064522,1.0223808999871835,1.1425963999936357,0.24603149999165908,True,near-080,1,1,1,0.625,0.5,start,16,0
4,1,True,2.4968649999937043,800.0,100.0,50.0,0,False,1,start,0.16666666666666666,60,0,1.0041541999962647,1.0041541999962647,0.12500629998976365,True,near-rnd2,1,1,1,0.625,0.5,start,16,0
5,4,True,1.6204597000032663,800.0,800.0,50.0,0,False,0,start,0.16666666666666666,60,0,1.0267941000056453,1.0267941000056453,0.22041229999740608,True,near-rndm,1,1,1,0.625,0.5,start,16,0
6,2,True,1.839804599992931,800.0,50.0,33.0,0,False,2,start,0.16666666666666666,60,0,1.0175289000035264,1.0175289000035264,0.3351603999908548,True,near-000,1,1,1,0.625,0.5,start,16,0
7,1,True,2.0257044000027236,800.0,50.0,33.0,10,False,2,start,0.16666666666666666,60,0.17136639999807812,1.0043889000080526,1.1757553000061307,0.3647746999922674,True,near-160,1,1,1,0.625,0.5,start,16,0
8,1,True,1.7610278000065591,800.0,50.0,33.0,5,False,2,start,0.16666666666666666,44,0.08993499999633059,0.7409840000036638,0.8309189999999944,0.5132745000009891,True,near-080,2,1,1,0.625,1.0,start,16,0
9,2,True,1.9795472999976482,800.0,33.0,50.0,0,False,3,start,0.16666666666666666,44,0,0.7373892999894451,0.7373892999894451,0.9328173999965657,True,near-rnd3,2,1,1,0.625,1.0,start,16,0
10,3,True,1.2753945000004023,800.0,100.0,50.0,0,False,1,start,0.16666666666666666,44,0,0.7729008999885991,0.7729008999885991,0.36977560000377707,True,near-rnd2,2,1,1,0.625,1.0,start,16,0
11,2,True,1.0743776999879628,800.0,800.0,50.0,0,False,0,start,0.16666666666666666,44,0,0.7471209000214003,0.7471209000214003,0.39089040001272224,True,near-rndm,2,1,1,0.625,1.0,start,16,0
12,1,True,1.2336953000049107,800.0,50.0,33.0,0,False,2,start,0.16666666666666666,44,0,0.7515701999946032,0.7515701999946032,0.6784727000049315,True,near-000,2,1,1,0.625,1.0,start,16,0
13,1,True,0.9524563000013586,800.0,50.0,33.0,10,False,2,start,0.16666666666666666,44,0.16747899999609217,0.7428476000204682,0.9103266000165604,0.44688160001533106,True,near-160,2,1,1,0.625,1.0,start,16,0
14,2,True,1.1859281999932136,800.0,50.0,33.0,15,False,2,start,0.16666666666666666,44,0.2586543000070378,0.7550067999982275,1.0136611000052653,0.23053289999370463,True,near-240,2,1,1,0.625,1.0,start,16,0
15,3,True,2.58990360001917,800.0,50.0,33.0,15,False,2,start,0.16666666666666666,28,0.2631136999989394,0.5026224000030197,0.7657361000019591,0.36589779998757876,True,near-240,3,1,1,0.625,1.0,start,16,0
16,2,True,1.6221294999995735,800.0,33.0,50.0,0,False,3,start,0.16666666666666666,28,0,0.5754681999969762,0.5754681999969762,1.327104900003178,True,near-rnd3,3,1,1,0.625,1.0,start,16,0
17,2,True,2.325399399996968,800.0,50.0,33.0,10,False,2,start,0.16666666666666666,28,0.18085850001079962,0.5097246999794152,0.6905831999902148,0.5337284000124782,True,near-160,3,1,1,0.625,1.0,start,16,0
18,2,True,1.3082963000051677,800.0,800.0,50.0,0,False,0,start,0.16666666666666666,28,0,0.4813241000229027,0.4813241000229027,0.4588799999910407,True,near-rndm,3,1,1,0.625,1.0,start,16,0
19,2,True,1.0468958000128623,800.0,50.0,33.0,5,False,2,start,0.16666666666666666,28,0.09413579999818467,0.5082355000195093,0.602371300017694,0.530222400004277,True,near-080,3,1,1,0.625,1.0,start,16,0
20,1,True,2.2116645999776665,800.0,100.0,50.0,0,False,1,start,0.16666666666666666,28,0,0.49413939999067225,0.49413939999067225,0.6495940999884624,True,near-rnd2,3,1,1,0.625,1.0,start,16,0
21,4,True,2.06068240001332,800.0,50.0,33.0,0,False,2,start,0.16666666666666666,28,0,0.5102265999885276,0.5102265999885276,0.6655124000099022,False,near-000,3,1,0,0.625,1.0,start,16,0
22,2,True,1.1788047999725677,800.0,800.0,50.0,0,False,0,start,0.16666666666666666,12,0,0.23623760000918992,0.23623760000918992,0.6529384999885224,True,near-rndm,4,1,1,0.625,0.5,start,16,0
23,1,True,1.9585836000042036,800.0,50.0,33.0,10,False,2,start,0.16666666666666666,12,0.17186910001328215,0.23149299999931827,0.4033621000126004,0.7871031999820843,False,near-160,4,1,0,0.625,0.5,start,16,0
24,2,True,1.112965999986045,800.0,50.0,33.0,5,False,2,start,0.16666666666666666,12,0.09057000000029802,0.25422219999018125,0.3447921999904793,0.8660348000121303,True,near-080,4,1,1,0.625,0.5,start,16,0
25,5,True,1.863409200013848,800.0,33.0,50.0,0,False,3,start,0.16666666666666666,12,0,0.24957950002863072,0.24957950002863072,2.6095568999880925,True,near-rnd3,4,1,1,0.625,0.5,start,16,0
26,3,True,1.2055633999989368,800.0,50.0,33.0,15,False,2,start,0.16666666666666666,12,0.26068750000558794,0.24837539999862202,0.50906290000421,1.1720150999899488,False,near-240,4,1,0,0.625,0.5,start,16,0
27,1,True,4.69870560002164,800.0,100.0,50.0,0,False,1,start,0.16666666666666666,12,0,0.23415380000369623,0.23415380000369623,1.241778700001305,False,near-rnd2,4,1,0,0.625,0.5,start,16,0
28,3,True,3.354730599996401,800.0,50.0,33.0,0,False,2,up,0.16666666666666666,44,0,0.766759699996328,0.766759699996328,0.5595868999953382,True,near-000,4,1,1,0.625,0.5,up,16,0
29,3,True,1.8814327000000048,800.0,50.0,33.0,10,False,2,up,0.16666666666666666,28,0.18996160000097007,0.5124452000018209,0.702406800002791,0.4817668000177946,True,near-160,5,1,1,0.625,0.5,up,16,0
30,3,True,1.2268610000028275,800.0,33.0,50.0,0,False,3,start,0.16666666666666666,0,0,0.03504849999444559,0.03504849999444559,2.1484989000018686,False,near-rnd3,5,1,0,0.625,0.5,start,16,0
31,2,True,1.0662607999984175,800.0,50.0,33.0,15,False,2,up,0.16666666666666666,28,0.258517500013113,0.5095250000013039,0.7680425000144169,0.48384070000611246,True,near-240,5,1,1,0.625,0.5,up,16,0
32,3,True,1.4208848999987822,800.0,50.0,33.0,0,False,2,up,0.16666666666666666,44,0,0.7619311999878846,0.7619311999878846,0.43910289998166263,True,near-000,5,2,2,1.25,1.0,up,16,0
33,1,True,5.1191267000103835,800.0,100.0,50.0,0,False,1,up,0.16666666666666666,28,0,0.4963958000007551,0.4963958000007551,0.6230921000242233,True,near-rnd2,5,1,1,0.625,0.5,up,16,0
34,2,True,0.8094884000020102,800.0,50.0,33.0,5,False,2,start,0.16666666666666666,0,0.09878090000711381,0.049452100007329136,0.14823300001444295,0.9603345000068657,False,near-080,5,1,0,0.625,0.5,start,16,0
35,1,True,8.311300300003495,800.0,800.0,50.0,0,False,0,start,0.16666666666666666,0,0,0.02665710001019761,0.02665710001019761,2.940709099988453,False,near-rndm,5,1,0,0.625,0.5,start,16,0
36,2,True,1.3184183000121266,800.0,33.0,50.0,0,False,3,up,0.16666666666666666,16,0,0.28971549999550916,0.28971549999550916,2.682725400023628,False,near-rnd3,6,1,0,0.625,0.5,up,16,0
37,2,True,4.023336100013694,800.0,100.0,50.0,0,False,1,up,0.16666666666666666,28,0,0.4965207999921404,0.4965207999921404,0.7724673999764491,True,near-rnd2,6,2,2,1.25,1.0,up,16,0
38,1,True,7.004241899994668,800.0,800.0,50.0,0,False,0,up,0.16666666666666666,16,0,0.2829120999958832,0.2829120999958832,0.8185183000168763,True,near-rndm,6,1,1,0.625,0.5,up,16,0
39,2,True,1.9169516999972984,800.0,50.0,33.0,0,False,2,up,0.16666666666666666,44,0,0.753568299987819,0.753568299987819,0.4325193999975454,True,near-000,6,3,3,1.875,1.0,up,16,0
40,2,True,2.8682811000035144,800.0,50.0,33.0,15,False,2,up,0.16666666666666666,28,0.2581341000040993,0.5009141000045929,0.7590482000086922,0.42943769998964854,True,near-240,6,2,2,1.25,1.0,up,16,0
41,1,True,1.7081174000049941,800.0,50.0,33.0,5,False,2,up,0.16666666666666666,16,0.09522850002394989,0.3009423000039533,0.39617080002790317,1.7005954000051133,False,near-080,6,1,0,0.625,0.5,up,16,0
42,2,True,1.4155230000033043,800.0,50.0,33.0,10,False,2,up,0.16666666666666666,28,0.17799889997695573,0.5091181000170764,0.6871169999940321,0.40423150002607144,True,near-160,6,2,2,1.25,1.0,up,16,0
43,1,True,2.2496265999798197,800.0,800.0,50.0,0,False,0,up,0.16666666666666666,16,0,0.28612250002333894,0.28612250002333894,0.6289600000018254,True,near-rndm,7,2,2,1.25,1.0,up,16,0
44,1,True,3.65032610000344,800.0,50.0,33.0,5,False,2,up,0.16666666666666666,16,0.09216449997620657,0.2955956000078004,0.38776009998400696,2.930819600005634,False,near-080,7,2,0,1.25,1.0,up,16,0
45,1,True,10.564643399993656,800.0,33.0,50.0,0,False,3,up,0.16666666666666666,16,0,0.27500870000221767,0.27500870000221767,1.3284718999930192,False,near-rnd3,7,2,0,1.25,1.0,up,16,0
46,2,True,14.771028900024248,800.0,50.0,33.0,0,False,2,down,0.16666666666666666,28,0,0.49547649998567067,0.49547649998567067,0.8502149999840185,True,near-000,7,1,1,0.625,0.5,down,8,0
47,4,True,1.649727600015467,800.0,50.0,33.0,10,False,2,up,0.16666666666666666,28,0.1909954000147991,0.5295610000030138,0.7205564000178128,0.40478490001987666,True,near-160,7,3,3,1.875,1.0,up,16,0
48,4,True,1.7945371000096202,800.0,50.0,33.0,15,False,2,up,0.16666666666666666,28,0.27020179998362437,0.5304224000137765,0.8006241999974009,0.4692644000169821,True,near-240,7,3,3,1.875,1.0,up,16,0
49,3,True,1.6311043000023346,800.0,100.0,50.0,0,False,1,up,0.16666666666666666,28,0,0.5006322999834083,0.5006322999834083,0.5333680000039749,True,near-rnd2,7,3,3,1.875,1.0,up,16,0
50,3,True,1.6930855000100564,800.0,33.0,50.0,0,False,3,up,0.16666666666666666,32,0,0.5624610999948345,0.5624610999948345,1.452473099983763,False,near-rnd3,8,1,0,0.625,1.0,up,16,0
51,1,True,3.4143714000238106,800.0,50.0,33.0,15,False,2,down,0.16666666666666666,12,0.2528552000003401,0.23380149999866262,0.48665669999900274,4.569074300001375,False,near-240,8,1,0,0.625,0.5,down,8,0
52,3,True,1.2013447000063024,800.0,800.0,50.0,0,False,0,up,0.16666666666666666,16,0,0.31240389999584295,0.31240389999584295,0.6675764000101481,True,near-rndm,8,3,3,1.875,1.0,up,16,0
53,3,True,1.275365800014697,800.0,50.0,33.0,0,False,2,down,0.16666666666666666,28,0,0.495854100008728,0.495854100008728,2.974277200002689,False,near-000,8,2,1,1.25,1,down,8,0
54,2,True,1.0749965999857523,800.0,50.0,33.0,5,False,2,up,0.16666666666666666,32,0.10206589999143034,0.5702602999808732,0.6723261999723036,0.5566304999811109,True,near-080,8,1,1,0.625,1.0,up,16,0
55,3,True,1.300745900021866,800.0,50.0,33.0,10,False,2,down,0.16666666666666666,12,0.18692730000475422,0.24965280000469647,0.4365801000094507,1.512726200016914,False,near-160,8,1,0,0.625,0.5,down,8,0
56,1,True,1.642338400008157,800.0,100.0,50.0,0,False,1,down,0.16666666666666666,12,0,0.23037659999681637,0.23037659999681637,1.0553968000167515,True,near-rnd2,8,1,1,0.625,0.5,down,8,0
57,4,True,1.6427847000013571,800.0,50.0,33.0,5,False,2,up,0.16666666666666666,32,0.11231180001050234,0.5712133999913931,0.6835252000018954,0.4457795000053011,True,near-080,9,2,2,1.25,1.0,up,16,0
58,1,True,5.987556899985066,800.0,33.0,50.0,0,False,3,up,0.16666666666666666,32,0,0.5316609999863431,0.5316609999863431,2.202335799986031,False,near-rnd3,9,2,0,1.25,1.0,up,16,0
59,4,True,1.014702499989653,800.0,800.0,50.0,0,False,0,down,0.16666666666666666,0,0,0.04811159998644143,0.04811159998644143,1.6255195999983698,False,near-rndm,9,1,0,0.625,0.5,down,8,0
60,2,True,1.4121379999851342,800.0,100.0,50.0,0,False,1,down,0.16666666666666666,12,0,0.24327229999471456,0.24327229999471456,1.1137687000154983,True,near-rnd2,9,2,2,1.25,1,down,8,0
61,1,True,1.6334461999940686,800.0,50.0,33.0,0,False,2,down,0.16666666666666666,28,0,0.4869714000087697,0.4869714000087697,3.8131733000045642,False,near-000,9,3,1,1.875,1,down,8,0
62,2,True,2.5299215000122786,800.0,50.0,33.0,15,False,2,down,0.16666666666666666,12,0.26399469998432323,0.23996979999355972,0.503964499977883,2.2604770000034478,False,near-240,9,2,0,1.25,1,down,8,0
63,1,True,2.1078969999798574,800.0,50.0,33.0,10,False,2,down,0.16666666666666666,12,0.1758556000131648,0.23289440001826733,0.40875000003143214,4.864011400000891,True,near-160,9,2,1,1.25,1,down,8,0
64,2,True,1.0506053999997675,800.0,50.0,33.0,15,False,2,up,0.16666666666666666,20,0.2622955999977421,0.3805634000163991,0.6428590000141412,0.8088378999964334,True,near-240,10,1,1,0.625,1,up,4,0
65,5,True,1.287629400001606,800.0,100.0,50.0,0,False,1,down,0.16666666666666666,12,0,0.26852869999129325,0.26852869999129325,1.720845299976645,True,near-rnd2,10,3,3,1.875,1,down,8,0
66,1,True,4.122662099980516,800.0,50.0,33.0,5,False,2,up,0.16666666666666666,32,0.09491250000428408,0.55281280001509,0.6477253000193741,0.4829627000144683,True,near-080,10,3,3,1.875,1.0,up,16,0
67,3,True,8.151696499990067,800.0,800.0,50.0,0,False,0,down,0.16666666666666666,0,0,0.04766140002175234,0.04766140002175234,2.621253799996339,False,near-rndm,10,2,0,1.25,1,down,8,0
68,1,True,2.338211299997056,800.0,50.0,33.0,0,False,2,down,0.16666666666666666,28,0,0.4913929000031203,0.4913929000031203,2.8377879000036046,False,near-000,10,4,1,2.5,1,down,8,0
69,1,True,4.810736399987945,800.0,50.0,33.0,10,False,2,down,0.16666666666666666,12,0.16885550000006333,0.23284479998983443,0.40170029998989776,3.9887033000122756,False,near-160,10,3,1,1.875,1,down,8,0
70,3,True,4.054167700000107,800.0,33.0,50.0,0,False,3,up,0.16666666666666666,48,0,0.8112981999875046,0.8112981999875046,0.6494741000060458,True,near-rnd3,10,1,1,0.625,1.0,up,16,0
71,1,True,51.704462499998044,800.0,50.0,33.0,5,False,2,down,0.16666666666666666,16,0.08815419999882579,0.3817073999962304,0.46986159999505617,0.9510788999905344,True,near-080,11,1,1,0.625,0.5,down,8,0
72,4,True,0.9759148999874014,800.0,33.0,50.0,0,False,3,up,0.16666666666666666,48,0,0.80918599999859,0.80918599999859,1.971811199997319,True,near-rnd3,11,2,2,1.25,1.0,up,16,0
73,3,True,1.2649961000133771,800.0,50.0,33.0,0,False,2,up,0.16666666666666666,36,0,0.6448772000148892,0.6448772000148892,0.7851748999964911,True,near-000,11,1,1,0.625,1,up,4,0
74,1,True,1.9178598999860696,800.0,50.0,33.0,15,False,2,up,0.16666666666666666,20,0.249702500004787,0.37293169999611564,0.6226342000009026,0.6671759999881033,True,near-240,11,2,2,1.25,1,up,4,0
75,1,True,2.287289100000635,800.0,800.0,50.0,0,False,0,up,0.16666666666666666,8,0,0.1596817999961786,0.1596817999961786,0.7177779999910854,True,near-rndm,11,1,1,0.625,1,up,4,0
76,1,True,1.4357635999913327,800.0,100.0,50.0,0,False,1,down,0.16666666666666666,4,0,0.10905329999513924,0.10905329999513924,2.4223512000171468,False,near-rnd2,11,1,0,0.625,1,down,8,0
77,2,True,1.440174699993804,800.0,50.0,33.0,10,False,2,down,0.16666666666666666,12,0.1753082999784965,0.2587929999863263,0.43410129996482283,2.0593616999976803,True,near-160,11,4,2,2.5,1,down,8,0
78,2,True,2.9367653999943286,800.0,800.0,50.0,0,False,0,up,0.16666666666666666,8,0,0.16813490001368336,0.16813490001368336,0.7986385000112932,True,near-rndm,12,2,2,1.25,1,up,4,0
79,1,True,4.759570499998517,800.0,100.0,50.0,0,False,1,down,0.16666666666666666,4,0,0.10487039998406544,0.10487039998406544,1.6099651999829803,False,near-rnd2,12,2,0,1.25,1,down,8,0
80,2,True,5.540162999997847,800.0,50.0,33.0,10,False,2,down,0.16666666666666666,12,0.17836419999366626,0.2517719999887049,0.4301361999823712,0.9436468999774661,False,near-160,12,5,2,3.125,1,down,8,0
81,2,True,1.2196454999793787,800.0,50.0,33.0,15,False,2,up,0.16666666666666666,20,0.2555160000047181,0.38302670000121,0.638542700005928,0.8233651000191458,True,near-240,12,3,3,1.875,1,up,4,0
82,1,True,3.099083300010534,800.0,33.0,50.0,0,False,3,up,0.16666666666666666,48,0,0.7910473000083584,0.7910473000083584,0.6062713999999687,True,near-rnd3,12,3,3,1.875,1.0,up,16,0
83,2,True,1.6903269999893382,800.0,50.0,33.0,0,False,2,up,0.16666666666666666,36,0,0.6203051000193227,0.6203051000193227,0.6365606999897864,True,near-000,12,2,2,1.25,1,up,4,0
84,3,True,1.8515585999994073,800.0,50.0,33.0,5,False,2,down,0.16666666666666666,16,0.10225570001057349,0.320593500015093,0.4228492000256665,1.6013837000064086,False,near-080,12,2,1,1.25,1,down,8,0
85,1,True,2.7444771000009496,800.0,50.0,33.0,15,False,2,down,0.16666666666666666,16,0.24696940000285394,0.3042088999936823,0.5511782999965362,0.7328431999776512,True,near-240,13,1,1,0.625,1,down,2,0
86,4,True,1.115589799999725,800.0,33.0,50.0,0,False,3,down,0.16666666666666666,32,0,0.5695467999903485,0.5695467999903485,1.0352557000005618,False,near-rnd3,13,1,0,0.625,0.5,down,8,0
87,4,True,1.450452100019902,800.0,100.0,50.0,0,False,1,up,0.16666666666666666,12,0,0.24818559997947887,0.24818559997947887,1.8351200000033714,False,near-rnd2,13,1,0,0.625,1,up,4,0
88,2,True,3.193501500005368,800.0,50.0,33.0,10,False,2,up,0.16666666666666666,20,0.17182550000143237,0.38058289999025874,0.5524083999916911,1.277406399982283,True,near-160,13,1,1,0.625,1,up,4,0
89,1,True,1.3258501999953296,800.0,800.0,50.0,0,False,0,up,0.16666666666666666,8,0,0.15448840000317432,0.15448840000317432,0.709028599987505,True,near-rndm,13,3,3,1.875,1,up,4,0
90,1,True,1.056055599998217,800.0,50.0,33.0,0,False,2,up,0.16666666666666666,36,0,0.6110805000062101,0.6110805000062101,1.1935555000090972,True,near-000,13,3,3,1.875,1,up,4,0
91,1,True,2.9414237000164576,800.0,50.0,33.0,5,False,2,down,0.16666666666666666,16,0.09140149998711422,0.29857990000164136,0.3899813999887556,2.218251699989196,True,near-080,13,3,2,1.875,1,down,8,0
92,4,True,1.634194500016747,800.0,50.0,33.0,5,False,2,down,0.16666666666666666,16,0.11200819999794476,0.3389364999893587,0.45094469998730347,1.6929117999970913,False,near-080,14,4,2,2.5,1,down,8,0
93,2,True,1.29871160001494,800.0,50.0,33.0,10,False,2,up,0.16666666666666666,20,0.17945419999887235,0.3708549999864772,0.5503091999853496,0.5600400999828707,True,near-160,14,2,2,1.25,1,up,4,0
94,3,True,1.4879788999969605,800.0,33.0,50.0,0,False,3,down,0.16666666666666666,32,0,0.5555308000184596,0.5555308000184596,2.969146199990064,True,near-rnd3,14,2,1,1.25,1,down,8,0
95,3,True,1.4670661000127438,800.0,800.0,50.0,0,False,0,down,0.16666666666666666,4,0,0.11057429999345914,0.11057429999345914,0.9843878999818116,True,near-rndm,14,1,1,0.625,1,down,2,0
96,3,True,4.9492311000067275,800.0,100.0,50.0,0,False,1,up,0.16666666666666666,12,0,0.25573760000406764,0.25573760000406764,1.7892763999989256,False,near-rnd2,14,2,0,1.25,1,up,4,0
97,2,True,1.2486037999915425,800.0,50.0,33.0,0,False,2,down,0.16666666666666666,32,0,0.5633352999866474,0.5633352999866474,1.727666400023736,True,near-000,14,1,1,0.625,1,down,2,0
98,4,True,1.343044999986887,800.0,50.0,33.0,15,False,2,down,0.16666666666666666,16,0.27927939998335205,0.31569190000300296,0.594971299986355,0.9804947999946307,True,near-240,14,2,2,1.25,2,down,2,0
99,1,True,38.60067960000015,800.0,100.0,50.0,0,False,1,up,0.16666666666666666,16,0,0.2938066000060644,0.2938066000060644,2.4505415000021458,False,near-rnd2,15,1,0,0.625,1,up,4,0
100,1,True,1.9523360999883153,800.0,50.0,33.0,5,False,2,down,0.16666666666666666,16,0.08932400000048801,0.29508420001366176,0.38440820001414977,0.7807093000155874,False,near-080,15,5,2,3.125,1,down,8,0
101,2,True,1.1969621000171173,800.0,50.0,33.0,0,False,2,down,0.16666666666666666,32,0,0.5562172999780159,0.5562172999780159,1.528412199986633,False,near-000,15,2,1,1.25,2,down,2,0
102,1,True,1.6838660000066739,800.0,800.0,50.0,0,False,0,down,0.16666666666666666,4,0,0.09658219999982975,0.09658219999982975,1.4951918000006117,True,near-rndm,15,2,2,1.25,2,down,2,0
103,2,True,1.8976006000011694,800.0,50.0,33.0,10,False,2,up,0.16666666666666666,20,0.18127760000061244,0.37332109999260865,0.5545986999932211,0.5836261999793351,True,near-160,15,3,3,1.875,1,up,4,0
104,1,True,1.289959199988516,800.0,33.0,50.0,0,False,3,down,0.16666666666666666,32,0,0.5367329999862704,0.5367329999862704,2.2221837999823038,False,near-rnd3,15,3,1,1.875,1,down,8,0
105,2,True,1.5532348999986425,800.0,50.0,33.0,15,False,2,down,0.16666666666666666,16,0.25990569998975843,0.3081012000038754,0.5680068999936339,1.4079549000016414,False,near-240,15,3,2,1.875,2,down,2,0
106,1,True,6.478749300003983,800.0,100.0,50.0,0,False,1,up,0.16666666666666666,16,0,0.3048226999817416,0.3048226999817416,2.4910658999870066,True,near-rnd2,16,2,1,1.25,1,up,4,0
107,2,True,2.292308399977628,800.0,33.0,50.0,0,False,3,down,0.16666666666666666,32,0,0.5441812000062782,0.5441812000062782,1.8871995999943465,False,near-rnd3,16,4,1,2.5,1,down,8,0
108,2,True,1.9277821000141557,800.0,50.0,33.0,5,False,2,up,0.16666666666666666,24,0.09686130000045523,0.44749940000474453,0.5443607000051998,0.555429500003811,True,near-080,16,1,1,0.625,1,up,4,0
109,1,True,2.0644205999851692,800.0,800.0,50.0,0,False,0,down,0.16666666666666666,4,0,0.10141000000294298,0.10141000000294298,0.9533953000209294,True,near-rndm,16,3,3,1.875,2,down,2,0
110,2,True,0.9517236999818124,800.0,50.0,33.0,10,False,2,down,0.16666666666666666,16,0.17802890000166371,0.30311899998923764,0.48114789999090135,2.930948299996089,False,near-160,16,1,0,0.625,1,down,2,0
111,2,True,2.3347554999927524,800.0,50.0,33.0,0,False,2,down,0.16666666666666666,32,0,0.5707071000069845,0.5707071000069845,0.4711170999798924,True,near-000,16,3,2,1.875,2,down,2,0
112,2,True,0.9814257999823894,800.0,50.0,33.0,15,False,2,down,0.16666666666666666,16,0.25368349999189377,0.30166289999033324,0.555346399982227,0.7990709999867249,True,near-240,16,4,3,2.5,2,down,2,0
113,3,True,1.5358639000041876,800.0,50.0,33.0,10,False,2,down,0.16666666666666666,16,0.29127479999442585,0.32512559997849166,0.6164003999729175,1.5439597000076901,True,near-160,17,2,1,1.25,2,down,2,0
114,3,True,1.063311000005342,800.0,100.0,50.0,0,False,1,up,0.16666666666666666,16,0,0.3167507999751251,0.3167507999751251,1.0463945000083186,True,near-rnd2,17,3,2,1.875,1,up,4,0
115,2,True,1.4577278000069782,800.0,50.0,33.0,5,False,2,up,0.16666666666666666,24,0.09976640000240877,0.430088799999794,0.5298552000022028,1.0041952999890782,True,near-080,17,2,2,1.25,1,up,4,0
116,3,True,1.0912236000003759,800.0,50.0,33.0,0,False,2,down,0.16666666666666666,32,0,0.5756566999771167,0.5756566999771167,1.0116087999776937,True,near-000,17,4,3,2.5,2,down,2,0
117,2,True,2.60648940000101,800.0,33.0,50.0,0,False,3,up,0.16666666666666666,40,0,0.6672286000102758,0.6672286000102758,1.070812499994645,False,near-rnd3,17,1,0,0.625,1,up,4,0
118,3,True,2.534056399977999,800.0,800.0,50.0,0,False,0,down,0.16666666666666666,4,0,0.1140943999926094,0.1140943999926094,0.771130200009793,True,near-rndm,17,4,4,2.5,2,down,2,0
119,3,True,1.389016700006323,800.0,50.0,33.0,15,False,2,down,0.16666666666666666,16,0.2676398999756202,0.31750279999687336,0.5851426999724936,2.1475403999793343,False,near-240,17,5,3,3.125,2,down,2,0
120,2,True,1.2954567999986466,800.0,50.0,33.0,5,False,2,up,0.16666666666666666,24,0.09428170000319369,0.4358308000082616,0.5301125000114553,1.4613160000008065,True,near-080,18,3,3,1.875,1,up,4,0
121,3,True,1.2736855999974068,800.0,100.0,50.0,0,False,1,up,0.16666666666666666,16,0,0.3128969000244979,0.3128969000244979,2.400120100006461,False,near-rnd2,18,4,2,2.5,1,up,4,0
122,1,True,3.8634707999881357,800.0,800.0,50.0,0,False,0,down,0.16666666666666666,4,0,0.08979190001264215,0.08979190001264215,1.2536619000020437,True,near-rndm,18,5,5,3.125,2,down,2,0
123,2,True,1.4781610000063665,800.0,50.0,33.0,0,False,2,down,0.16666666666666666,32,0,0.5555199999944307,0.5555199999944307,0.7602219000109471,True,near-000,18,5,4,3.125,2,down,2,0
124,1,True,4.444691100012278,800.0,50.0,33.0,10,False,2,down,0.16666666666666666,16,0.17120509999222122,0.2928517999825999,0.46405689997482114,0.9657265999994706,False,near-160,18,3,1,1.875,2,down,2,0
125,2,True,5.876235899981111,800.0,33.0,50.0,0,False,3,up,0.16666666666666666,40,0,0.6724217000009958,0.6724217000009958,3.097065100009786,False,near-rnd3,18,2,0,1.25,1,up,4,0
126,1,True,1.6219143999915104,800.0,50.0,33.0,15,False,2,down,0.16666666666666666,16,0.2544458000047598,0.29290709999622777,0.5473529000009876,0.9417770000000019,True,near-240,18,6,4,3.75,2,down,2,0
127,4,True,1.1340140999818686,800.0,50.0,33.0,5,False,2,down,0.16666666666666666,20,0.10338549999869429,0.3950546999985818,0.49844019999727607,5.715574200003175,False,near-080,19,1,0,0.625,1,down,2,0
128,2,True,1.8764581000141334,800.0,100.0,50.0,0,False,1,up,0.16666666666666666,16,0,0.31093209999380633,0.31093209999380633,2.833859099977417,True,near-rnd2,19,5,3,3.125,1,up,4,0
129,4,True,2.3439821999927517,800.0,50.0,33.0,10,False,2,down,0.16666666666666666,16,0.24316809998708777,0.32289599999785423,0.566064099984942,0.9481746999954339,True,near-160,19,4,2,2.5,2,down,2,0
130,1,True,1.875639100006083,800.0,50.0,33.0,15,False,2,down,0.16666666666666666,16,0.2475288000132423,0.29813469998771325,0.5456635000009555,1.7732171999814454,True,near-240,19,7,5,4.375,2,down,2,0
131,1,True,7.241564500000095,800.0,800.0,50.0,0,False,0,down,0.16666666666666666,4,0,0.09505219999118708,0.09505219999118708,0.8963438000064343,True,near-rndm,19,6,6,3.75,2,down,2,0
132,2,True,1.0131874000071548,800.0,33.0,50.0,0,False,3,up,0.16666666666666666,44,0,0.7423044000170194,0.7423044000170194,1.5567494999850169,True,near-rnd3,19,1,1,0.625,1,up,4,0
133,2,True,1.5926821999892127,800.0,50.0,33.0,0,False,2,down,0.16666666666666666,32,0,0.5918178000138141,0.5918178000138141,0.6803297000005841,True,near-000,19,6,5,3.75,2,down,2,0
134,2,True,1.773309700016398,800.0,50.0,33.0,15,False,2,down,0.16666666666666666,16,0.25900809999438934,0.2982405000075232,0.5572486000019126,0.9203657000034582,True,near-240,20,8,6,5.0,2,down,2,0
135,4,True,2.3361920999886934,800.0,100.0,50.0,0,False,1,up,0.16666666666666666,16,0,0.3234184000175446,0.3234184000175446,1.7375384999904782,False,near-rnd2,20,6,3,3.75,1,up,4,0
136,3,True,2.4034064000006765,800.0,50.0,33.0,0,False,2,down,0.16666666666666666,32,0,0.5801530000171624,0.5801530000171624,1.1461232000146993,False,near-000,20,7,5,4.375,2,down,2,0
137,1,True,4.464661499980139,800.0,50.0,33.0,5,False,2,down,0.16666666666666666,20,0.08740270000998862,0.3603743999847211,0.4477770999947097,0.963615699991351,True,near-080,20,2,1,1.25,2,down,2,0
138,3,True,1.4014071999990847,800.0,50.0,33.0,10,False,2,down,0.16666666666666666,16,0.18193980000796728,0.323583100020187,0.5055229000281543,2.8338384999951813,True,near-160,20,5,3,3.125,2,down,2,0
139,2,True,1.5697223999886774,800.0,800.0,50.0,0,False,0,down,0.16666666666666666,2,0,0.06660379999084398,0.06660379999084398,1.9300643999886233,True,near-rndm,20,1,1,0.625,2,down,2,0
140,1,True,5.487087099987548,800.0,33.0,50.0,0,False,3,up,0.16666666666666666,44,0,0.7245676000020467,0.7245676000020467,1.0965551999979652,False,near-rnd3,20,2,1,1.25,1,up,4,0
141,4,True,1.680230500001926,800.0,100.0,50.0,0,False,1,up,0.16666666666666666,16,0,0.3386305999883916,0.3386305999883916,3.382111699989764,False,near-rnd2,21,7,3,4.375,1,up,4,0
142,3,True,1.390734100015834,800.0,50.0,33.0,0,False,2,down,0.16666666666666666,32,0,0.5700359999900684,0.5700359999900684,0.5676453999767546,True,near-000,21,8,6,5.0,2,down,2,0
143,1,True,1.758897399995476,800.0,50.0,33.0,10,False,2,down,0.16666666666666666,16,0.1790340000006836,0.29669899999862537,0.47573299999930896,1.1392009999835864,True,near-160,21,6,4,3.75,2,down,2,0
144,3,True,1.8899107000033837,800.0,50.0,33.0,5,False,2,down,0.16666666666666666,20,0.10879510000813752,0.38079300001845695,0.4895881000265945,1.4529177999938838,False,near-080,21,3,1,1.875,2,down,2,0
145,1,True,5.525419599987799,800.0,50.0,33.0,15,False,2,down,0.16666666666666666,16,0.25193999998737127,0.2959035999956541,0.5478435999830253,2.161518899985822,True,near-240,21,9,7,5.625,2,down,2,1
146,1,True,3.3820575999852736,800.0,800.0,50.0,0,False,0,down,0.16666666666666666,2,0,0.06069789998582564,0.06069789998582564,1.9244866000080947,True,near-rndm,21,2,2,1.25,2,down,2,0
147,4,True,1.4823450999974739,800.0,33.0,50.0,0,False,3,up,0.16666666666666666,44,0,0.7647177999897394,0.7647177999897394,1.4514581999974325,False,near-rnd3,21,3,1,1.875,1,up,4,0
148,1,True,10.55286409999826,800.0,50.0,33.0,0,False,2,down,0.16666666666666666,32,0,0.6885670000046957,0.6885670000046957,0.6028131000057328,True,near-000,22,9,7,5.625,2,down,2,1
149,2,True,2.8677790999936406,800.0,33.0,50.0,0,False,3,up,0.16666666666666666,44,0,0.7354738999856636,0.7354738999856636,1.4066426000208594,False,near-rnd3,22,4,1,2.5,1,up,4,0
150,1,True,3.8448941000096966,800.0,50.0,33.0,5,False,2,down,0.16666666666666666,20,0.09544029997778125,0.3598244999884628,0.455264799966244,0.8476851999876089,True,near-080,22,4,2,2.5,2,down,2,0
151,2,True,2.0751825000043027,800.0,50.0,33.0,10,False,2,down,0.16666666666666666,16,0.18085740000242367,0.30950589998974465,0.4903632999921683,0.9131315000122413,False,near-160,22,7,4,4.375,2,down,2,0
152,2,True,3.1861850999994203,800.0,100.0,50.0,0,False,1,up,0.16666666666666666,20,0,0.36900239999522455,0.36900239999522455,0.9629022999724839,False,near-rnd2,22,1,0,0.625,1,up,4,0
153,4,True,1.5077600000076927,800.0,800.0,50.0,0,False,0,down,0.16666666666666666,2,0,0.09176680000382476,0.09176680000382476,0.8934649000002537,True,near-rndm,22,3,3,1.875,2,down,2,0
154,3,True,2.0015460000140592,800.0,50.0,33.0,15,False,2,down,0.16666666666666666,16,0.2587217999971472,0.31109840000863187,0.569820200005779,2.1232526999956463,True,near-240,22,10,8,6.25,2,down,2,1
155,3,True,1.5092931000108365,800.0,50.0,33.0,10,False,2,down,0.16666666666666666,16,0.1801465000025928,0.31474090000847355,0.49488740001106635,0.7593704000173602,True,near-160,23,8,5,5.0,2,down,2,0
156,2,True,1.5561783000011928,800.0,50.0,33.0,0,False,2,down,0.16666666666666666,32,0,0.5519678000127897,0.5519678000127897,0.8707895000115968,True,near-000,23,10,8,6.25,2,down,2,1
157,2,True,1.2171251999970991,800.0,100.0,50.0,0,False,1,up,0.16666666666666666,20,0,0.3663410000153817,0.3663410000153817,0.7625571000098716,True,near-rnd2,23,2,1,1.25,1,up,4,0
158,2,True,1.9200909999781288,800.0,50.0,33.0,5,False,2,down,0.16666666666666666,20,0.09328639999148436,0.3758637999999337,0.46915019999141805,0.7918647000042256,True,near-080,23,5,3,3.125,2,down,2,0
159,1,True,3.927836800023215,800.0,33.0,50.0,0,False,3,up,0.16666666666666666,48,0,0.7873147999926005,0.7873147999926005,0.7019195999891963,True,near-rnd3,23,1,1,0.625,1,up,4,0
160,2,True,1.1376841999881435,800.0,800.0,50.0,0,False,0,down,0.16666666666666666,2,0,0.06556680001085624,0.06556680001085624,2.5598740999994334,True,near-rndm,23,4,4,2.5,2,down,2,0
161,2,True,1.4449816000123974,800.0,50.0,33.0,15,False,2,down,0.16666666666666666,16,0.2573621000046842,0.30921210002270527,0.5665742000273895,0.7535575999936555,False,near-240,23,11,8,6.875,2,down,2,1
162,1,True,1.8098900999757461,800.0,50.0,33.0,10,False,2,down,0.16666666666666666,16,0.17268389998935163,0.3022175999940373,0.47490149998338893,1.0090243000013288,True,near-160,24,9,6,5.625,2,down,2,1
163,1,True,2.7890834000136238,800.0,50.0,33.0,5,False,2,down,0.16666666666666666,20,0.08938920000218786,0.36454690000391565,0.4539361000061035,3.258928499999456,False,near-080,24,6,3,3.75,2,down,2,0
164,1,True,4.054535400005989,800.0,33.0,50.0,0,False,3,up,0.16666666666666666,48,0,0.7863800000050105,0.7863800000050105,1.2176147999998648,True,near-rnd3,24,2,2,1.25,1,up,4,0
165,2,True,2.3490205999987666,800.0,50.0,33.0,0,False,2,down,0.16666666666666666,32,0,0.5564559000195004,0.5564559000195004,2.019128699990688,True,near-000,24,11,9,6.875,2,down,2,1
166,1,True,2.9703412000089884,800.0,800.0,50.0,0,False,0,down,0.16666666666666666,2,0,0.06768609999562614,0.06768609999562614,2.4760327999829315,True,near-rndm,24,5,5,3.125,2,down,2,0
167,2,True,1.638206600007834,800.0,100.0,50.0,0,False,1,up,0.16666666666666666,20,0,0.37010329999611713,0.37010329999611713,0.8125713000190444,True,near-rnd2,24,3,2,1.875,1,up,4,0
168,2,True,1.8364463000034448,800.0,50.0,33.0,15,False,2,down,0.16666666666666666,16,0.2595026000053622,0.30247110000345856,0.5619737000088207,1.8648356999910902,True,near-240,24,12,9,7.5,2,down,2,1
169,1,True,4.1946007999940775,800.0,50.0,33.0,5,False,2,down,0.16666666666666666,20,0.08699320000596344,0.36799870000686496,0.4549919000128284,1.0585923999897204,True,near-080,25,7,4,4.375,2,down,2,0
170,3,True,1.079181700013578,800.0,33.0,50.0,0,False,3,up,0.16666666666666666,48,0,0.8111236999975517,0.8111236999975517,1.0790490000217687,True,near-rnd3,25,3,3,1.875,1,up,4,0
171,1,True,1.5858018999861088,800.0,50.0,33.0,0,False,2,down,0.16666666666666666,31,0,0.538058700010879,0.538058700010879,0.9648973000003025,True,near-000,25,1,1,0.625,2,down,1,0
172,3,True,1.1274750000156928,800.0,50.0,33.0,15,False,2,down,0.16666666666666666,16,0.2629095999873243,0.31273330000112765,0.575642899988452,1.1801659000047948,True,near-240,25,13,10,8.125,2,down,2,1
173,1,True,10.770599300012691,800.0,100.0,50.0,0,False,1,up,0.16666666666666666,20,0,0.3653370999963954,0.3653370999963954,0.844766400026856,True,near-rnd2,25,4,3,2.5,1,up,4,0
174,2,True,1.719398099987302,800.0,800.0,50.0,0,False,0,down,0.16666666666666666,2,0,0.07296320001478307,0.07296320001478307,0.9564507000031881,True,near-rndm,25,6,6,3.75,2,down,2,0
175,1,True,1.6811502999917138,800.0,50.0,33.0,10,False,2,down,0.16666666666666666,16,0.17027879998204298,0.30541489997995086,0.47569369996199384,0.7563357999897562,True,near-160,25,10,7,6.25,2,down,2,1
176,1,True,2.593332000018563,800.0,50.0,33.0,15,False,2,down,0.16666666666666666,16,0.2521640000049956,0.2948444999929052,0.5470084999979008,0.7575815000163857,True,near-240,26,14,11,8.75,2,down,2,1
177,3,True,1.472071500000311,800.0,50.0,33.0,10,False,2,down,0.16666666666666666,16,0.18049290002090856,0.32153260000632145,0.50202550002723,1.5395867000042927,False,near-160,26,11,7,6.875,2,down,2,1
178,4,True,1.452496899990365,800.0,800.0,50.0,0,False,0,down,0.16666666666666666,0,0,0.04833999997936189,0.04833999997936189,2.746643899998162,False,near-rndm,26,1,0,0.625,2,down,2,0
179,1,True,3.5028816999983974,800.0,50.0,33.0,0,False,2,down,0.16666666666666666,31,0,0.5615051000204403,0.5615051000204403,2.109188800008269,False,near-000,26,2,1,1.25,2,down,1,0
180,2,True,1.364743299986003,800.0,50.0,33.0,5,False,2,down,0.16666666666666666,20,0.09659900001133792,0.3728453000076115,0.46944430001894943,2.7679386000090744,False,near-080,26,8,4,5.0,2,down,2,0
181,1,True,3.1707208000007086,800.0,33.0,50.0,0,False,3,down,0.16666666666666666,44,0,0.7272217000136152,0.7272217000136152,0.6858595999947283,True,near-rnd3,26,1,1,0.625,1,down,2,0
182,2,True,2.9137232000066433,800.0,100.0,50.0,0,False,1,up,0.16666666666666666,20,0,0.36453700001584366,0.36453700001584366,1.2974488000036217,True,near-rnd2,26,5,4,3.125,1,up,4,0
183,2,True,1.2619745999982115,800.0,50.0,33.0,5,False,2,down,0.16666666666666666,20,0.09895839999080636,0.37520650000078604,0.4741648999915924,0.7871821000007913,True,near-080,27,9,5,5.625,2,down,2,1
184,3,True,2.494358600000851,800.0,33.0,50.0,0,False,3,down,0.16666666666666666,44,0,0.7427728000038769,0.7427728000038769,0.44039340000017546,True,near-rnd3,27,2,2,1.25,2,down,2,0
185,1,True,5.330592899990734,800.0,100.0,50.0,0,False,1,up,0.16666666666666666,20,0,0.3609862000157591,0.3609862000157591,0.6768281999975443,True,near-rnd2,27,6,5,3.75,1,up,4,0
186,4,True,1.6975221000029705,800.0,800.0,50.0,0,False,0,down,0.16666666666666666,0,0,0.04988559999037534,0.04988559999037534,1.9218040000123437,False,near-rndm,27,2,0,1.25,2,down,2,0
187,2,True,1.7941750999889337,800.0,50.0,33.0,0,False,2,down,0.16666666666666666,31,0,0.5564846999768633,0.5564846999768633,0.9902313000056893,True,near-000,27,3,2,1.875,2,down,1,0
188,2,True,1.462644300016109,800.0,50.0,33.0,15,False,2,down,0.16666666666666666,15,0.25257569999666885,0.30897600000025705,0.5615516999969259,1.1607449000002816,False,near-240,27,1,0,0.625,2,down,1,0
189,1,True,1.663715200003935,800.0,50.0,33.0,10,False,2,down,0.16666666666666666,16,0.17235510001773946,0.3067668000003323,0.47912190001807176,0.6355561999953352,True,near-160,27,12,8,7.5,2,down,2,1
190,4,True,1.2793942999851424,800.0,100.0,50.0,0,False,1,down,0.16666666666666666,16,0,0.34203050000360236,0.34203050000360236,0.8005113999824971,True,near-rnd2,28,1,1,0.625,1,down,2,0
191,2,True,1.2427916000015102,800.0,50.0,33.0,5,False,2,down,0.16666666666666666,20,0.09670069999992847,0.37255390000063926,0.46925460000056773,0.6935803999949712,True,near-080,28,10,6,6.25,2,down,2,1
192,2,True,1.2147791000024881,800.0,800.0,50.0,0,False,0,down,0.16666666666666666,0,0,0.03433189998031594,0.03433189998031594,1.6528316999902017,False,near-rndm,28,3,0,1.875,2,down,2,0
193,1,True,1.383955999976024,800.0,50.0,33.0,10,False,2,down,0.16666666666666666,16,0.17037260002689436,0.30456319998484105,0.4749358000117354,1.885079700005008,False,near-160,28,13,8,8.125,2,down,2,1
194,4,True,1.1795025000174064,800.0,50.0,33.0,15,False,2,down,0.16666666666666666,15,0.2777078000071924,0.3238095999986399,0.6015174000058323,0.8099103000131436,False,near-240,28,2,0,1.25,2,down,1,0
195,2,True,2.1608999999880325,800.0,50.0,33.0,0,False,2,down,0.16666666666666666,31,0,0.5486036000074819,0.5486036000074819,1.0100732000137214,True,near-000,28,4,3,2.5,2,down,1,0
196,2,True,6.957123200001661,800.0,33.0,50.0,0,False,3,down,0.16666666666666666,44,0,0.731262000015704,0.731262000015704,1.7694409000105225,False,near-rnd3,28,3,2,1.875,2,down,2,0
197,2,True,2.86795240000356,800.0,50.0,33.0,15,False,2,down,0.16666666666666666,15,0.2572150999912992,0.30345959999249317,0.5606746999837924,2.2385576000087894,False,near-240,29,3,0,1.875,2,down,1,0
198,2,True,1.755441699991934,800.0,50.0,33.0,5,False,2,down,0.16666666666666666,20,0.09624139999505132,0.3770600999996532,0.4733014999947045,1.5704120000009425,True,near-080,29,11,7,6.875,2,down,2,1
199,2,True,2.403773400001228,800.0,33.0,50.0,0,False,3,down,0.16666666666666666,44,0,0.7426107999926899,0.7426107999926899,0.9736835999938194,True,near-rnd3,29,4,3,2.5,2,down,2,0
200,2,True,10.330906099989079,800.0,100.0,50.0,0,False,1,down,0.16666666666666666,16,0,0.3144590000156313,0.3144590000156313,3.5846458000014536,True,near-rnd2,29,2,2,1.25,2,down,2,0
201,3,True,1.5887695999990683,800.0,50.0,33.0,0,False,2,down,0.16666666666666666,31,0,0.5646056000259705,0.5646056000259705,0.5996047999942675,True,near-000,29,5,4,3.125,2,down,1,0
202,3,True,2.3033219999924768,800.0,800.0,50.0,0,False,0,down,0.16666666666666666,0,0,0.042345000023487955,0.042345000023487955,1.563317799998913,False,near-rndm,29,4,0,2.5,2,down,2,0
203,1,True,1.9986610000196379,800.0,50.0,33.0,10,False,2,down,0.16666666666666666,16,0.17243920001783408,0.3024749000032898,0.4749141000211239,0.7473961999930907,True,near-160,29,14,9,8.75,2,down,2,1
204,2,True,2.8443317000055686,800.0,50.0,33.0,0,False,2,down,0.16666666666666666,31,0,0.5511957999842707,0.5511957999842707,0.6764423999993596,True,near-000,30,6,5,3.75,2,down,1,0
205,4,True,1.2818331999878865,800.0,100.0,50.0,0,False,1,down,0.16666666666666666,16,0,0.3320266999944579,0.3320266999944579,1.0517698999901768,True,near-rnd2,30,3,3,1.875,2,down,2,0
206,1,True,1.2114617000042927,800.0,800.0,50.0,0,False,0,up,0.16666666666666666,2,0,0.06087210000259802,0.06087210000259802,1.115012399997795,False,near-rndm,30,1,0,0.625,2,up,1,0
207,2,True,1.9589977999858093,800.0,50.0,33.0,5,False,2,down,0.16666666666666666,20,0.0914424000075087,0.381655100005446,0.4730975000129547,2.3235017000115477,False,near-080,30,12,7,7.5,2,down,2,1
208,3,True,1.8400392000039574,800.0,33.0,50.0,0,False,3,down,0.16666666666666666,44,0,0.7527788000006694,0.7527788000006694,1.2080267999845091,False,near-rnd3,30,5,3,3.125,2,down,2,0
209,1,True,2.845553099992685,800.0,50.0,33.0,15,False,2,down,0.16666666666666666,15,0.25119129999075085,0.28134779998799786,0.5325390999787487,1.229154100001324,False,near-240,30,4,0,2.5,2,down,1,0
210,3,True,3.2918056000198703,800.0,50.0,33.0,10,False,2,down,0.16666666666666666,16,0.1947855000034906,0.31478220000281,0.5095677000063006,0.9254284999915399,True,near-160,30,15,10,9.375,2,down,2,1
211,4,True,1.3458509999909438,800.0,50.0,33.0,0,False,2,down,0.16666666666666666,31,0,0.55404930000077,0.55404930000077,0.5979879999940749,True,near-000,31,7,6,4.375,2,down,1,0
212,1,True,2.4840946000185795,800.0,50.0,33.0,10,False,2,down,0.16666666666666666,16,0.17096740001579747,0.30353929998818785,0.4745067000039853,0.7678100999910384,True,near-160,31,16,11,10.0,2,down,2,1
213,3,True,1.3586302000039723,800.0,50.0,33.0,15,False,2,up,0.16666666666666666,16,0.26748770000995137,0.3313946000125725,0.5988823000225239,0.8994207000068855,True,near-240,31,1,1,0.625,2,up,1,0
214,3,True,1.682144899998093,800.0,800.0,50.0,0,False,0,up,0.16666666666666666,2,0,0.22348509999574162,0.22348509999574162,1.3437058000126854,True,near-rndm,31,2,1,1.25,2,up,1,0
215,1,True,1.9718890000076499,800.0,50.0,33.0,5,False,2,down,0.16666666666666666,20,0.09057609998853877,0.35920720000285655,0.4497832999913953,0.9017633000039496,True,near-080,31,13,8,8.125,2,down,2,1
216,4,True,2.682595999998739,800.0,33.0,50.0,0,False,3,down,0.16666666666666666,44,0,0.7558411999780219,0.7558411999780219,0.9071847000159323,True,near-rnd3,31,6,4,3.75,2,down,2,0
217,1,True,2.5046174000017345,800.0,100.0,50.0,0,False,1,down,0.16666666666666666,16,0,0.30179990001488477,0.30179990001488477,0.8859310999978334,True,near-rnd2,31,4,4,2.5,2,down,2,0
218,3,True,1.343870099983178,800.0,50.0,33.0,5,False,2,down,0.16666666666666666,20,0.10968799999682233,0.3903291999886278,0.5000171999854501,1.0201350999996066,False,near-080,32,14,8,8.75,2,down,2,1
219,3,True,1.832487100007711,800.0,50.0,33.0,0,False,2,down,0.16666666666666666,31,0,0.5871968000137713,0.5871968000137713,0.6472227000049315,True,near-000,32,8,7,5.0,2,down,1,0
220,1,True,2.6081106000056025,800.0,33.0,50.0,0,False,3,down,0.16666666666666666,44,0,0.7242801999964286,0.7242801999964286,0.8927777000062633,False,near-rnd3,32,7,4,4.375,2,down,2,0
221,2,True,1.8182189000071958,800.0,800.0,50.0,0,False,0,up,0.16666666666666666,2,0,0.07128390000434592,0.07128390000434592,0.9887604999821633,False,near-rndm,32,3,1,1.875,2,up,1,0
222,1,True,2.2256240000133403,800.0,100.0,50.0,0,False,1,down,0.16666666666666666,16,0,0.30452070001047105,0.30452070001047105,1.04068560001906,True,near-rnd2,32,5,5,3.125,2,down,2,0
223,2,True,1.9713579000090249,800.0,50.0,33.0,10,False,2,down,0.16666666666666666,16,0.18034239998087287,0.31344630001694895,0.4937886999978218,0.689482699992368,True,near-160,32,17,12,10.625,2,down,2,2
224,2,True,1.8002169000101276,800.0,50.0,33.0,15,False,2,up,0.16666666666666666,16,0.25924980000127107,0.3075379000219982,0.5667877000232693,0.6800686000206042,True,near-240,32,2,2,1.25,3,up,1,0
225,4,True,1.2809423000144307,800.0,50.0,33.0,10,False,2,down,0.16666666666666666,16,0.1894550999859348,0.3457687000045553,0.5352237999904901,0.6869961000047624,True,near-160,33,18,13,11.25,2,down,2,2
226,3,True,1.1004744000092614,800.0,50.0,33.0,5,False,2,down,0.16666666666666666,20,0.1126798999903258,0.37779430000227876,0.49047419999260455,0.6908869000035338,True,near-080,33,15,9,9.375,2,down,2,1
227,3,True,1.1781750000081956,800.0,50.0,33.0,15,False,2,up,0.16666666666666666,16,0.2708917999989353,0.31642879999708384,0.5873205999960192,0.6520088999823201,True,near-240,33,3,3,1.875,3,up,1,0
228,1,True,1.255023000005167,800.0,33.0,50.0,0,False,3,down,0.16666666666666666,44,0,0.7281789999979082,0.7281789999979082,1.3577119999972638,False,near-rnd3,33,8,4,5.0,2,down,2,0
229,4,True,1.1532755000225734,800.0,800.0,50.0,0,False,0,up,0.16666666666666666,2,0,0.08863539999583736,0.08863539999583736,0.8419285999843851,True,near-rndm,33,4,2,2.5,2,up,1,0
230,1,True,1.5846959999762475,800.0,50.0,33.0,0,False,2,down,0.16666666666666666,31,0,0.5392314000055194,0.5392314000055194,0.7139852000109386,False,near-000,33,9,7,5.625,2,down,1,1
231,2,True,1.6910556000075303,800.0,100.0,50.0,0,False,1,down,0.16666666666666666,16,0,0.30559019997599535,0.30559019997599535,0.8807591999939177,False,near-rnd2,33,6,5,3.75,2,down,2,0
232,1,True,1.7222149999870453,800.0,800.0,50.0,0,False,0,up,0.16666666666666666,2,0,0.059703500010073185,0.059703500010073185,1.1848462000198197,False,near-rndm,34,5,2,3.125,2,up,1,0
233,1,True,1.7848825000110082,800.0,100.0,50.0,0,False,1,down,0.16666666666666666,16,0,0.293537199991988,0.293537199991988,0.920663600001717,False,near-rnd2,34,7,5,4.375,2,down,2,0
234,1,True,1.8485521999828052,800.0,50.0,33.0,0,False,2,down,0.16666666666666666,31,0,0.5282976999878883,0.5282976999878883,0.7491205999976955,True,near-000,34,10,8,6.25,2,down,1,1
235,4,True,2.9585582000145223,800.0,50.0,33.0,15,False,2,up,0.16666666666666666,16,0.26420320000033826,0.33540690000518225,0.5996101000055205,0.6078199000039604,True,near-240,34,4,4,2.5,3,up,1,0
236,2,True,1.2902756999828853,800.0,50.0,33.0,10,False,2,down,0.16666666666666666,16,0.17222080001374707,0.31039239998790435,0.4826132000016514,0.776106700010132,True,near-160,34,19,14,11.875,2,down,2,2
237,2,True,2.2657431999978144,800.0,50.0,33.0,5,False,2,down,0.16666666666666666,20,0.10504409999703057,0.3819387999828905,0.48698289997992106,1.1925348000077065,True,near-080,34,16,10,10.0,2,down,2,1
238,2,True,2.2915915999910794,800.0,33.0,50.0,0,False,3,down,0.16666666666666666,44,0,0.7389082000008784,0.7389082000008784,0.8627712999877986,False,near-rnd3,34,9,4,5.625,2,down,2,1
239,2,True,1.4041374000080395,800.0,800.0,50.0,0,False,0,up,0.16666666666666666,2,0,0.06860420000157319,0.06860420000157319,1.0268082000256982,False,near-rndm,35,6,2,3.75,2,up,1,0
240,1,True,3.162386800016975,800.0,100.0,50.0,0,False,1,down,0.16666666666666666,16,0,0.29920120001770556,0.29920120001770556,1.8685931999934837,False,near-rnd2,35,8,5,5.0,2,down,2,0
241,2,True,3.623575700010406,800.0,50.0,33.0,5,False,2,down,0.16666666666666666,20,0.0940915999817662,0.3820013999938965,0.4760929999756627,1.5599783999787178,True,near-080,35,17,11,10.625,2,down,2,2
242,2,True,2.1340803999919444,800.0,33.0,50.0,0,False,3,down,0.16666666666666666,44,0,0.8204426000011154,0.8204426000011154,0.655326200008858,True,near-rnd3,35,10,5,6.25,2,down,2,1
243,1,True,2.1847604000067804,800.0,50.0,33.0,0,False,2,down,0.16666666666666666,31,0,0.5337600999919232,0.5337600999919232,0.7758126000117045,True,near-000,35,11,9,6.875,2,down,1,1
244,1,True,3.2771461000083946,800.0,50.0,33.0,10,False,2,down,0.16666666666666666,15,0.17493499998818152,0.29017120000207797,0.4651061999902595,1.0194982000102755,False,near-160,35,1,0,0.625,2,down,1,0
245,1,True,4.42175850001513,800.0,50.0,33.0,15,False,2,up,0.16666666666666666,16,0.24905310000758618,0.30969359999289736,0.5587467000004835,0.9690268999838736,True,near-240,35,5,5,3.125,3,up,1,0
246,1,True,3.605968700023368,800.0,50.0,33.0,5,False,2,down,0.16666666666666666,20,0.09116599999833852,0.3632029000145849,0.4543689000129234,0.9250713000074029,True,near-080,36,18,12,11.25,2,down,2,2
247,2,True,2.2709851000108756,800.0,50.0,33.0,15,False,2,up,0.16666666666666666,16,0.2586680999957025,0.3144336999976076,0.5731017999933101,0.6347683999920264,True,near-240,36,6,6,3.75,3,up,1,0
248,1,True,2.1601658999861684,800.0,100.0,50.0,0,False,1,down,0.16666666666666666,16,0,0.29760150000220165,0.29760150000220165,1.382962600007886,True,near-rnd2,36,9,6,5.625,2,down,2,1
249,2,True,1.4209875999949872,800.0,50.0,33.0,0,False,2,down,0.16666666666666666,30,0,0.5261480000044685,0.5261480000044685,0.6706661000207532,True,near-000,36,1,1,0.625,2,down,1,0
250,2,True,4.032345600018743,800.0,50.0,33.0,10,False,2,down,0.16666666666666666,15,0.18167410002206452,0.30404239997733384,0.48571649999939837,0.7458898999902885,True,near-160,36,2,1,1.25,3,down,1,0
251,2,True,3.2482429000083357,800.0,800.0,50.0,0,False,0,up,0.16666666666666666,2,0,0.07108019999577664,0.07108019999577664,0.9489308999909554,False,near-rndm,36,7,2,4.375,2,up,1,0
252,1,True,2.6865112999803387,800.0,33.0,50.0,0,False,3,down,0.16666666666666666,44,0,0.7233583999914117,0.7233583999914117,1.1285453000164125,True,near-rnd3,36,11,6,6.875,2,down,2,1
253,2,True,1.4016891999926884,800.0,33.0,50.0,0,False,3,down,0.16666666666666666,44,0,0.7302299999864772,0.7302299999864772,0.6463899000082165,True,near-rnd3,37,12,7,7.5,2,down,2,1
254,1,True,10.011304100014968,800.0,50.0,33.0,10,False,2,down,0.16666666666666666,15,0.1695054000010714,0.2801407999941148,0.4496461999951862,0.950319000025047,False,near-160,37,3,1,1.875,3,down,1,0
255,1,True,2.6288803000061307,800.0,100.0,50.0,0,False,1,down,0.16666666666666666,16,0,0.29765549997682683,0.29765549997682683,1.1252329999988433,False,near-rnd2,37,10,6,6.25,2,down,2,1
256,1,True,3.3915654000011273,800.0,50.0,33.0,5,False,2,down,0.16666666666666666,20,0.09067110001342371,0.36537099999259226,0.45604210000601597,2.44790150001063,False,near-080,37,19,12,11.875,2,down,2,2
257,1,True,2.0094484000001103,800.0,800.0,50.0,0,False,0,up,0.16666666666666666,3,0,0.07531779998680577,0.07531779998680577,1.0052623999945354,False,near-rndm,37,1,0,0.625,2,up,1,0
258,4,True,1.2470009000098798,800.0,50.0,33.0,15,False,2,up,0.16666666666666666,16,0.26791229998343624,0.31299579999176785,0.5809080999752041,0.8042816999950446,True,near-240,37,7,7,4.375,3,up,1,0
259,1,True,7.0235576999839395,800.0,50.0,33.0,0,False,2,down,0.16666666666666666,30,0,0.5140620000020135,0.5140620000020135,1.7708323000115342,False,near-000,37,2,1,1.25,3,down,1,0
260,1,True,2.2175598999892827,800.0,100.0,50.0,0,False,1,down,0.16666666666666666,16,0,0.30072349999682046,0.30072349999682046,1.6699658000143245,True,near-rnd2,38,11,7,6.875,2,down,2,1
261,3,True,1.0380282000114676,800.0,50.0,33.0,0,False,2,down,0.16666666666666666,30,0,0.5449361999926623,0.5449361999926623,0.5877866999944672,True,near-000,38,3,2,1.875,3,down,1,0
262,1,True,2.7856905000226106,800.0,50.0,33.0,5,False,2,down,0.16666666666666666,20,0.09027690000948496,0.37295499999891035,0.4632319000083953,0.9172820000094362,False,near-080,38,20,12,12.5,2,down,2,2
263,4,True,1.131243399984669,800.0,800.0,50.0,0,False,0,up,0.16666666666666666,3,0,0.10762349999276921,0.10762349999276921,0.7607907000056002,True,near-rndm,38,2,1,1.25,2,up,1,0
264,4,True,1.0466844999755267,800.0,33.0,50.0,0,False,3,down,0.16666666666666666,44,0,0.7595552999991924,0.7595552999991924,0.6231074999959674,True,near-rnd3,38,13,8,8.125,2,down,2,1
265,4,True,2.602822099986952,800.0,50.0,33.0,15,False,2,up,0.16666666666666666,16,0.2709490999986883,0.3359933000174351,0.6069424000161234,0.6167887000192422,True,near-240,38,8,8,5.0,3,up,1,0
266,2,True,2.2737629000039306,800.0,50.0,33.0,10,False,2,down,0.16666666666666666,15,0.17313959999592043,0.29479620000347495,0.4679357999993954,1.3158156000135932,True,near-160,38,4,2,2.5,3,down,1,0
267,2,True,1.8276523999811616,800.0,100.0,50.0,0,False,1,down,0.16666666666666666,16,0,0.31177699999534525,0.31177699999534525,0.7806825000152458,True,near-rnd2,39,12,8,7.5,2,down,2,1
268,4,True,1.2265532999881543,800.0,33.0,50.0,0,False,3,down,0.16666666666666666,44,0,0.7536669000110123,0.7536669000110123,0.663642199971946,True,near-rnd3,39,14,9,8.75,2,down,2,1
269,2,True,2.6323166999791283,800.0,50.0,33.0,10,False,2,down,0.16666666666666666,15,0.17317130000446923,0.2889547000231687,0.46212600002763793,1.0434758999908809,True,near-160,39,5,3,3.125,3,down,1,0
270,3,True,1.206140399997821,800.0,50.0,33.0,5,False,2,down,0.16666666666666666,20,0.10485609999159351,0.3934344999724999,0.4982905999640934,1.3546597999811638,False,near-080,39,21,12,13.125,2,down,2,2
271,2,True,1.2368571999832056,800.0,50.0,33.0,0,False,2,down,0.16666666666666666,30,0,0.5327398999943398,0.5327398999943398,1.1812161999987438,True,near-000,39,4,3,2.5,3,down,1,0
272,2,True,1.056840800010832,800.0,800.0,50.0,0,False,0,up,0.16666666666666666,3,0,0.08400840000831522,0.08400840000831522,0.8003135000180919,False,near-rndm,39,3,1,1.875,2,up,1,0
273,1,True,3.2401448000164237,800.0,50.0,33.0,5,False,2,down,0.16666666666666666,20,0.08727459999499843,0.5034250999742653,0.5906996999692637,0.4804580000054557,True,near-080,40,22,13,13.75,2,down,2,2
274,1,True,2.3327917999995407,800.0,33.0,50.0,0,False,3,down,0.16666666666666666,44,0,0.7274548999848776,0.7274548999848776,0.6477583999803755,True,near-rnd3,40,15,10,9.375,2,down,2,1
275,1,True,1.527613200014457,800.0,50.0,33.0,10,False,2,down,0.16666666666666666,15,0.17236269998829812,0.287011899985373,0.45937459997367114,0.8139697999868076,True,near-160,40,6,4,3.75,3,down,1,0
276,1,True,2.6261300000187475,800.0,100.0,50.0,0,False,1,down,0.16666666666666666,16,0,0.2995616999978665,0.2995616999978665,2.680412999994587,False,near-rnd2,40,13,8,8.125,2,down,2,1
277,2,True,5.447717999981251,800.0,800.0,50.0,0,False,0,up,0.16666666666666666,3,0,0.09052830000291578,0.09052830000291578,1.5423881000024267,False,near-rndm,40,4,1,2.5,2,up,1,0
278,4,True,1.2856147999991663,800.0,50.0,33.0,0,False,2,down,0.16666666666666666,30,0,0.5607442999898922,0.5607442999898922,3.3861493000003975,False,near-000,40,5,3,3.125,3,down,1,0
279,4,True,1.2903785999806132,800.0,50.0,33.0,10,False,2,down,0.16666666666666666,15,0.1979008999769576,0.3188095999939833,0.5167104999709409,3.0733179999806453,False,near-160,41,7,4,4.375,3,down,1,0
280,1,True,4.071578100003535,800.0,800.0,50.0,0,False,0,up,0.16666666666666666,3,0,0.07832039997447282,0.07832039997447282,0.9915888000105042,True,near-rndm,41,5,2,3.125,2,up,1,0
281,3,True,1.8707384999725036,800.0,50.0,33.0,5,False,2,down,0.16666666666666666,20,0.1036725000012666,0.3832924999878742,0.4869649999891408,0.6313492000044789,True,near-080,41,23,14,14.375,2,down,2,2
282,2,True,1.1895487000001594,800.0,33.0,50.0,0,False,3,down,0.16666666666666666,44,0,0.7397958999790717,0.7397958999790717,0.5873283999972045,True,near-rnd3,41,16,11,10.0,2,down,2,1
283,1,True,1.4975205999799073,800.0,50.0,33.0,0,False,2,down,0.16666666666666666,30,0,0.5228338000015356,0.5228338000015356,0.7133594000188168,True,near-000,41,6,4,3.75,3,down,1,0
284,2,True,1.7420885000028647,800.0,100.0,50.0,0,False,1,down,0.16666666666666666,16,0,0.31268639999325387,0.31268639999325387,1.1339719999814406,True,near-rnd2,41,14,9,8.75,2,down,2,1
285,2,True,1.1297107000136748,800.0,100.0,50.0,0,False,1,down,0.16666666666666666,16,0,0.29996450000908226,0.29996450000908226,1.5293153999955393,False,near-rnd2,42,15,9,9.375,2,down,2,1
286,1,True,1.3991623000183608,800.0,50.0,33.0,10,False,2,down,0.16666666666666666,15,0.17032340000150725,0.2841896000027191,0.45451300000422634,1.5793478999985382,True,near-160,42,8,5,5.0,3,down,1,0
287,3,True,1.6850277000048663,800.0,50.0,33.0,0,False,2,down,0.16666666666666666,30,0,0.5340473999967799,0.5340473999967799,0.765201399975922,True,near-000,42,7,5,4.375,3,down,1,0
288,1,True,3.9303140999982134,800.0,50.0,33.0,5,False,2,down,0.16666666666666666,20,0.09539429997676052,0.3582059000036679,0.45360019998042844,1.6673260999959894,False,near-080,42,24,14,15.0,2,down,2,2
289,1,True,1.2518958000000566,800.0,33.0,50.0,0,False,3,down,0.16666666666666666,44,0,0.7302063000097405,0.7302063000097405,1.5883971999865025,False,near-rnd3,42,17,11,10.625,2,down,2,2
290,1,True,3.3225547000183724,800.0,800.0,50.0,0,False,0,up,0.16666666666666666,3,0,0.07633410001290031,0.07633410001290031,1.1577685000083875,True,near-rndm,42,6,3,3.75,2,up,1,0
291,2,True,2.529657799983397,800.0,33.0,50.0,0,False,3,down,0.16666666666666666,44,0,0.7393118999898434,0.7393118999898434,0.5159566999936942,True,near-rnd3,43,18,12,11.25,2,down,2,2
292,1,True,3.9633304000017233,800.0,100.0,50.0,0,False,1,down,0.16666666666666666,16,0,0.2962709000275936,0.2962709000275936,0.7323581000091508,False,near-rnd2,43,16,9,10.0,2,down,2,1
293,1,True,3.0453685999964364,800.0,800.0,50.0,0,False,0,up,0.16666666666666666,3,0,0.08041940000839531,0.08041940000839531,0.9752306000154931,False,near-rndm,43,7,3,4.375,2,up,1,0
294,1,True,6.05203189997701,800.0,50.0,33.0,0,False,2,down,0.16666666666666666,30,0,0.5221294999937527,0.5221294999937527,0.7707319000037387,True,near-000,43,8,6,5.0,3,down,1,0
