trial,primeIter,primeCorrect,primeTime,primeDepth,stimDepth,extraDepth,driveFrames,nearToFar,diopters,direction,size,intensity,extraLatency,mainLatency,totalLatency,responseTime,correct,caseLabel,caseTrial,trialsAtStep,stepCorrect,expected,w,direction,stepsize,stepChange
1,3,True,1.8613687999895774,800.0,50.0,33.0,0,False,2,start,0.16666666666666666,60,0,1.016226399980951,1.016226399980951,0.3410852999659255,True,near-000,1,1,1,0.625,0.5,start,16,0
2,1,True,2.500735799956601,800.0,50.0,33.0,15,False,2,start,0.16666666666666666,60,0.2470714999944903,1.0030294999596663,1.2501009999541566,0.3918728000135161,True,near-240,1,1,1,0.625,0.5,start,16,0
3,1,True,2.5697674000402912,800.0,50.0,33.0,10,False,2,start,0.16666666666666666,60,0.1684246999793686,1.1191951999790035,1.2876198999583721,0.06031649996293709,True,near-160,1,1,1,0.625,0.5,start,16,0
4,1,True,2.1550809999462217,800.0,50.0,33.0,5,False,2,start,0.16666666666666666,60,0.0913229999714531,1.0015582999913022,1.0928812999627553,0.31446770002366975,True,near-080,1,1,1,0.625,0.5,start,16,0
5,3,True,4.291321000026073,800.0,33.0,50.0,0,False,3,start,0.16666666666666666,60,0,0.997102299996186,0.997102299996186,0.3766575999907218,True,near-rnd3,1,1,1,0.625,0.5,start,16,0
6,3,True,1.2985664999578148,800.0,800.0,50.0,0,False,0,start,0.16666666666666666,60,0,1.0065645999857225,1.0065645999857225,0.1941192999947816,True,near-rndm,1,1,1,0.625,0.5,start,16,0
7,4,True,1.3503348999656737,800.0,100.0,50.0,0,False,1,start,0.16666666666666666,60,0,1.04241200000979,1.04241200000979,0.5599686000496149,True,near-rnd2,1,1,1,0.625,0.5,start,16,0
8,3,True,1.2388274999684654,800.0,50.0,33.0,0,False,2,start,0.16666666666666666,44,0,0.7643529999768361,0.7643529999768361,0.7801376999705099,False,near-000,2,1,0,0.625,1.0,start,16,0
9,2,True,1.434194999979809,800.0,50.0,33.0,10,False,2,start,0.16666666666666666,44,0.1831131000071764,0.7570916000404395,0.9402047000476159,0.34746620000805706,True,near-160,2,1,1,0.625,1.0,start,16,0
10,4,True,1.8096920000389218,800.0,50.0,33.0,15,False,2,start,0.16666666666666666,44,0.26828829996520653,0.7902803000179119,1.0585685999831185,0.455497800023295,True,near-240,2,1,1,0.625,1.0,start,16,0
11,2,True,1.529224099998828,800.0,33.0,50.0,0,False,3,start,0.16666666666666666,44,0,0.7360900000203401,0.7360900000203401,1.060079900023993,True,near-rnd3,2,1,1,0.625,1.0,start,16,0
12,1,True,2.306698600004893,800.0,100.0,50.0,0,False,1,start,0.16666666666666666,44,0,0.743787599960342,0.743787599960342,0.5092642999952659,True,near-rnd2,2,1,1,0.625,1.0,start,16,0
13,5,True,1.6944263000041246,800.0,800.0,50.0,0,False,0,start,0.16666666666666666,44,0,0.798393200035207,0.798393200035207,0.3756087999790907,True,near-rndm,2,1,1,0.625,1.0,start,16,0
14,1,True,2.3320721000200137,800.0,50.0,33.0,5,False,2,start,0.16666666666666666,44,0.08921120001468807,0.7556900000199676,0.8449012000346556,0.6641972999786958,True,near-080,2,1,1,0.625,1.0,start,16,0
15,2,True,1.5120784000027925,800.0,50.0,33.0,10,False,2,start,0.16666666666666666,28,0.32961239997530356,0.5077007999643683,0.8373131999396719,0.5170602999860421,True,near-160,3,1,1,0.625,1.0,start,16,0
16,1,True,2.7136676000081934,800.0,50.0,33.0,15,False,2,start,0.16666666666666666,28,0.24768910004058853,0.49625969998305663,0.7439488000236452,0.46751800004858524,True,near-240,3,1,1,0.625,1.0,start,16,0
17,2,True,2.02176239999244,800.0,100.0,50.0,0,False,1,start,0.16666666666666666,28,0,0.49655219999840483,0.49655219999840483,0.6320700999931432,True,near-rnd2,3,1,1,0.625,1.0,start,16,0
18,2,True,2.3143242999794893,800.0,50.0,33.0,0,False,2,start,0.16666666666666666,44,0,0.7628864999860525,0.7628864999860525,1.1476805999991484,True,near-000,3,2,1,1.25,1.0,start,16,0
19,2,True,1.6006365999928676,800.0,50.0,33.0,5,False,2,start,0.16666666666666666,28,0.09901850001187995,0.4943918999633752,0.5934103999752551,1.404193700000178,True,near-080,3,1,1,0.625,1.0,start,16,0
20,1,True,1.8726631000172347,800.0,33.0,50.0,0,False,3,start,0.16666666666666666,28,0,0.4657678999938071,0.4657678999938071,4.00106170005165,False,near-rnd3,3,1,0,0.625,1.0,start,16,0
21,2,True,2.0803192000021227,800.0,800.0,50.0,0,False,0,start,0.16666666666666666,28,0,0.4855223000049591,0.4855223000049591,0.5789368000114337,True,near-rndm,3,1,1,0.625,1.0,start,16,0
22,2,True,1.4784176999819465,800.0,50.0,33.0,0,False,2,start,0.16666666666666666,28,0,0.5048338000196964,0.5048338000196964,1.1563217000220902,False,near-000,4,1,0,0.625,0.5,start,16,0
23,2,True,1.679763299995102,800.0,33.0,50.0,0,False,3,up,0.16666666666666666,44,0,0.7472874000086449,0.7472874000086449,0.6255178000428714,True,near-rnd3,4,1,1,0.625,0.5,up,16,0
24,1,True,2.190708300040569,800.0,50.0,33.0,10,False,2,start,0.16666666666666666,12,0.17309779999777675,0.23439609998604283,0.4074938999838196,0.81103720003739,False,near-160,4,1,0,0.625,0.5,start,16,0
25,1,True,1.5148730999790132,800.0,50.0,33.0,5,False,2,start,0.16666666666666666,12,0.08920509996823967,0.23670300003141165,0.3259080999996513,1.7419729999965057,True,near-080,4,1,1,0.625,0.5,start,16,0
26,1,True,2.869765500014182,800.0,100.0,50.0,0,False,1,start,0.16666666666666666,12,0,0.23399360000621527,0.23399360000621527,0.9763136999681592,True,near-rnd2,4,1,1,0.625,0.5,start,16,0
27,1,True,1.811718299984932,800.0,800.0,50.0,0,False,0,start,0.16666666666666666,12,0,0.2209838000126183,0.2209838000126183,0.9062548999791034,True,near-rndm,4,1,1,0.625,0.5,start,16,0
28,2,True,2.053212800004985,800.0,50.0,33.0,15,False,2,start,0.16666666666666666,12,0.2545980000286363,0.25420510000549257,0.5088031000341289,0.7709291000501253,False,near-240,4,1,0,0.625,0.5,start,16,0
29,1,True,2.2733449000515975,800.0,50.0,33.0,0,False,2,up,0.16666666666666666,44,0,0.7430792000377551,0.7430792000377551,0.6507195000303909,True,near-000,5,1,1,0.625,0.5,up,16,0
30,3,True,1.120586999983061,800.0,50.0,33.0,10,False,2,up,0.16666666666666666,28,0.18524349998915568,0.5221392000094056,0.7073826999985613,0.40049199998611584,True,near-160,5,1,1,0.625,0.5,up,16,0
31,2,True,3.276273299998138,800.0,33.0,50.0,0,False,3,up,0.16666666666666666,44,0,0.7325935999979265,0.7325935999979265,0.8309047000366263,False,near-rnd3,5,2,1,1.25,1.0,up,16,0
32,1,True,3.72649030003231,800.0,50.0,33.0,5,False,2,start,0.16666666666666666,0,0.09081110003171489,0.040636599995195866,0.13144770002691075,2.802090999961365,True,near-080,5,1,1,0.625,0.5,start,16,0
33,2,True,1.9470067000365816,800.0,100.0,50.0,0,False,1,start,0.16666666666666666,0,0,0.04231160000199452,0.04231160000199452,1.5635193000198342,False,near-rnd2,5,1,0,0.625,0.5,start,16,0
34,3,True,1.4042518999776803,800.0,800.0,50.0,0,False,0,start,0.16666666666666666,0,0,0.03831700002774596,0.03831700002774596,4.762984800036065,False,near-rndm,5,1,0,0.625,0.5,start,16,0
35,1,True,3.647394500032533,800.0,50.0,33.0,15,False,2,up,0.16666666666666666,28,0.2518421999993734,0.5343724000267684,0.7862146000261419,0.6394825000315905,True,near-240,5,1,1,0.625,0.5,up,16,0
36,3,True,1.2503301000106148,800.0,50.0,33.0,0,False,2,up,0.16666666666666666,44,0,0.7591356000048108,0.7591356000048108,0.6649272000067867,True,near-000,6,2,2,1.25,1.0,up,16,0
37,2,True,1.3683639999944717,800.0,33.0,50.0,0,False,3,up,0.16666666666666666,44,0,0.7371757000219077,0.7371757000219077,0.6933069999795407,True,near-rnd3,6,3,2,1.875,1.0,up,16,0
38,3,True,1.933846400002949,800.0,50.0,33.0,10,False,2,up,0.16666666666666666,28,0.18762490001972765,0.5126460999599658,0.7002709999796934,0.4768317000125535,True,near-160,6,2,2,1.25,1.0,up,16,0
39,1,True,2.0519008000264876,800.0,50.0,33.0,15,False,2,up,0.16666666666666666,28,0.2540156000177376,0.48922439996385947,0.7432399999815971,0.4491291999584064,True,near-240,6,2,2,1.25,1.0,up,16,0
40,3,True,1.2780743000330403,800.0,50.0,33.0,5,False,2,start,0.16666666666666666,0,0.10627339995699003,0.048550300009083,0.15482369996607304,1.0481562000350095,False,near-080,6,1,0,0.625,0.5,start,16,0
41,1,True,2.492917200026568,800.0,800.0,50.0,0,False,0,up,0.16666666666666666,16,0,0.28830969997216016,0.28830969997216016,0.7216372999828309,True,near-rndm,6,1,1,0.625,0.5,up,16,0
42,1,True,1.2268905999953859,800.0,100.0,50.0,0,False,1,up,0.16666666666666666,16,0,0.2905587999848649,0.2905587999848649,0.8071265000035055,False,near-rnd2,6,1,0,0.625,0.5,up,16,0
43,3,True,1.3382787000155076,800.0,50.0,33.0,0,False,2,up,0.16666666666666666,44,0,0.7589432999957353,0.7589432999957353,0.38488869997672737,True,near-000,7,3,3,1.875,1.0,up,16,0
44,3,True,1.3783579000155441,800.0,50.0,33.0,5,False,2,up,0.16666666666666666,16,0.10758549999445677,0.3105636000400409,0.4181491000344977,1.3005340999807231,False,near-080,7,1,0,0.625,0.5,up,16,0
45,1,True,1.7001235999632627,800.0,100.0,50.0,0,False,1,up,0.16666666666666666,16,0,0.3076547000091523,0.3076547000091523,1.189333600050304,False,near-rnd2,7,2,0,1.25,1.0,up,16,0
46,3,True,4.472988200024702,800.0,50.0,33.0,15,False,2,up,0.16666666666666666,28,0.2664337999885902,0.5125335999764502,0.7789673999650404,0.46215519995894283,True,near-240,7,3,3,1.875,1.0,up,16,0
47,3,True,1.8737374999909662,800.0,33.0,50.0,0,False,3,up,0.16666666666666666,44,0,0.7454852000228129,0.7454852000228129,5.4555447999737225,False,near-rnd3,7,4,2,2.5,0.5,up,16,0
48,1,True,2.439884899999015,800.0,50.0,33.0,10,False,2,up,0.16666666666666666,28,0.17479580000508577,0.49377979995915666,0.6685755999642424,2.957039100001566,False,near-160,7,3,2,1.875,1.0,up,16,0
49,2,True,1.3334785000188276,800.0,800.0,50.0,0,False,0,up,0.16666666666666666,16,0,0.2906714999699034,0.2906714999699034,0.6970828999765217,True,near-rndm,7,2,2,1.25,1.0,up,16,0
50,3,True,1.3155086999759078,800.0,50.0,33.0,10,False,2,up,0.16666666666666666,28,0.18420690001221374,0.5037694000056945,0.6879763000179082,0.7296819999464788,True,near-160,8,4,3,2.5,0.5,up,16,0
51,3,True,2.4885047000134364,800.0,50.0,33.0,0,False,2,down,0.16666666666666666,28,0,0.506424099963624,0.506424099963624,0.7329909999971278,True,near-000,8,1,1,0.625,0.5,down,8,0
52,2,True,1.2550037000328302,800.0,33.0,50.0,0,False,3,up,0.16666666666666666,44,0,0.7331788999726996,0.7331788999726996,1.786144899961073,False,near-rnd3,8,5,2,3.125,0.5,up,16,0
53,2,True,2.5750095999683253,800.0,100.0,50.0,0,False,1,up,0.16666666666666666,32,0,0.5757843999890611,0.5757843999890611,0.550825199985411,True,near-rnd2,8,1,1,0.625,1.0,up,16,0
54,1,True,1.1850643999641761,800.0,800.0,50.0,0,False,0,up,0.16666666666666666,16,0,0.2883037999854423,0.2883037999854423,1.1090152999968268,True,near-rndm,8,3,3,1.875,1.0,up,16,0
55,2,True,0.9574976000003517,800.0,50.0,33.0,5,False,2,up,0.16666666666666666,16,0.10077779996208847,0.31534780003130436,0.4161255999933928,1.0832334000151604,False,near-080,8,2,0,1.25,1.0,up,16,0
56,2,True,1.2020938999485224,800.0,50.0,33.0,15,False,2,down,0.16666666666666666,12,0.2519713999936357,0.23982470005284995,0.49179610004648566,0.7092158999876119,False,near-240,8,1,0,0.625,0.5,down,8,0
57,4,True,1.2516834999551065,800.0,50.0,33.0,15,False,2,down,0.16666666666666666,12,0.2587518999935128,0.2541501000523567,0.5129020000458695,0.6559774000197649,False,near-240,9,2,0,1.25,1,down,8,0
58,2,True,1.1119453000137582,800.0,100.0,50.0,0,False,1,up,0.16666666666666666,32,0,0.5568115999922156,0.5568115999922156,0.3999339999863878,True,near-rnd2,9,2,2,1.25,1.0,up,16,0
59,2,True,1.2548765999963507,800.0,50.0,33.0,5,False,2,up,0.16666666666666666,32,0.10745030001271516,0.5716014000354335,0.6790517000481486,0.48505120002664626,True,near-080,9,1,1,0.625,1.0,up,16,0
60,3,True,1.1517800000146963,800.0,800.0,50.0,0,False,0,down,0.16666666666666666,0,0,0.05345780000789091,0.05345780000789091,1.495446200016886,False,near-rndm,9,1,0,0.625,0.5,down,8,0
61,1,True,1.7254429999738932,800.0,50.0,33.0,0,False,2,down,0.16666666666666666,28,0,0.4888597000390291,0.4888597000390291,0.827682500006631,True,near-000,9,2,2,1.25,1,down,8,0
62,3,True,3.1207542000338435,800.0,33.0,50.0,0,False,3,up,0.16666666666666666,60,0,1.0008362000226043,1.0008362000226043,1.2372751000220887,False,near-rnd3,9,1,0,0.625,0.5,up,16,0
63,2,True,2.5467646999750286,800.0,50.0,33.0,10,False,2,up,0.16666666666666666,28,0.1787395999999717,0.5129115000017919,0.6916511000017636,1.635608599986881,False,near-160,9,5,3,3.125,0.5,up,16,0
64,1,True,6.548616099986248,800.0,50.0,33.0,5,False,2,up,0.16666666666666666,32,0.09097579994704574,0.5617522000102326,0.6527279999572784,0.4374072999926284,True,near-080,10,2,2,1.25,1.0,up,16,0
65,2,True,1.137507499952335,800.0,800.0,50.0,0,False,0,down,0.16666666666666666,0,0,0.03594660002272576,0.03594660002272576,1.2139630999881774,True,near-rndm,10,2,1,1.25,1,down,8,0
66,1,True,1.8235741999815218,800.0,33.0,50.0,0,False,3,up,0.16666666666666666,60,0,0.9842292999965139,0.9842292999965139,0.7704979999689385,True,near-rnd3,10,2,1,1.25,1.0,up,16,0
67,3,True,1.6312773000099696,800.0,100.0,50.0,0,False,1,up,0.16666666666666666,32,0,0.5833642000216059,0.5833642000216059,0.39117519999854267,True,near-rnd2,10,3,3,1.875,1.0,up,16,0
68,2,True,2.236026899947319,800.0,50.0,33.0,10,False,2,up,0.16666666666666666,28,0.17806330003077164,0.5059917999897152,0.6840551000204869,0.479671299981419,True,near-160,10,6,4,3.75,0.5,up,16,0
69,2,True,2.646157299983315,800.0,50.0,33.0,0,False,2,down,0.16666666666666666,28,0,0.5053463000222109,0.5053463000222109,0.6608020000276156,False,near-000,10,3,2,1.875,1,down,8,0
70,2,True,1.4054786000051536,800.0,50.0,33.0,15,False,2,up,0.16666666666666666,20,0.2589379000128247,0.3773183999583125,0.6362562999711372,0.6417380999773741,True,near-240,10,1,1,0.625,1,up,4,0
71,2,True,1.2345855999737978,800.0,100.0,50.0,0,False,1,down,0.16666666666666666,16,0,0.3017663999926299,0.3017663999926299,1.0218745999736711,True,near-rnd2,11,1,1,0.625,0.5,down,8,0
72,2,True,1.0811447000014596,800.0,33.0,50.0,0,False,3,up,0.16666666666666666,60,0,0.989199900010135,0.989199900010135,0.280596999975387,True,near-rnd3,11,3,2,1.875,1.0,up,16,0
73,2,True,1.5064334999769926,800.0,800.0,50.0,0,False,0,down,0.16666666666666666,0,0,0.03347439999924973,0.03347439999924973,1.6835630999994464,False,near-rndm,11,3,1,1.875,1,down,8,0
74,4,True,1.533009700011462,800.0,50.0,33.0,0,False,2,down,0.16666666666666666,28,0,0.5194349000230432,0.5194349000230432,0.7679228999768384,False,near-000,11,4,2,2.5,1,down,8,0
75,2,True,2.1631655999808572,800.0,50.0,33.0,15,False,2,up,0.16666666666666666,20,0.24995860003400594,0.37151530000846833,0.6214739000424743,0.491022200032603,True,near-240,11,2,2,1.25,1,up,4,0
76,3,True,0.9555710999993607,800.0,50.0,33.0,5,False,2,up,0.16666666666666666,32,0.2277351999655366,0.5697412000154145,0.7974763999809511,0.2632966000237502,True,near-080,11,3,3,1.875,1.0,up,16,0
77,1,True,1.3857673999737017,800.0,50.0,33.0,10,False,2,up,0.16666666666666666,28,0.17237000004388392,0.4906776999705471,0.663047700014431,0.722786600003019,True,near-160,11,7,5,4.375,0.5,up,16,0
78,1,True,1.2937635999987833,800.0,33.0,50.0,0,False,3,up,0.16666666666666666,60,0,0.987150400003884,0.987150400003884,0.1808455999707803,True,near-rnd3,12,4,3,2.5,0.5,up,16,0
79,1,True,2.5336280000046827,800.0,50.0,33.0,15,False,2,up,0.16666666666666666,20,0.252757299982477,0.3670624999795109,0.6198197999619879,0.43891979998443276,True,near-240,12,3,3,1.875,1,up,4,0
80,2,True,1.376081400027033,800.0,50.0,33.0,10,False,2,down,0.16666666666666666,12,0.17337279999628663,0.23750160000054166,0.4108743999968283,1.376321799994912,True,near-160,12,1,1,0.625,0.5,down,8,0
81,2,True,1.3092895000008866,800.0,800.0,50.0,0,False,0,down,0.16666666666666666,0,0,0.03114169999025762,0.03114169999025762,1.1369540999876335,True,near-rndm,12,4,2,2.5,1,down,8,0
82,2,True,2.674367200001143,800.0,100.0,50.0,0,False,1,down,0.16666666666666666,16,0,0.33203229994978756,0.33203229994978756,0.708767399948556,True,near-rnd2,12,2,2,1.25,1,down,8,0
83,1,True,3.121099200041499,800.0,50.0,33.0,0,False,2,down,0.16666666666666666,28,0,0.49365750001743436,0.49365750001743436,0.6167453000089154,True,near-000,12,5,3,3.125,1,down,8,0
84,2,True,1.4132345000398345,800.0,50.0,33.0,5,False,2,down,0.16666666666666666,16,0.10367709997808561,0.30942040000809357,0.4130974999861792,1.0270536000025459,False,near-080,12,1,0,0.625,0.5,down,8,0
85,4,True,1.287349299993366,800.0,100.0,50.0,0,False,1,down,0.16666666666666666,16,0,0.31731690000742674,0.31731690000742674,0.719336399983149,False,near-rnd2,13,3,2,1.875,1,down,8,0
86,1,True,1.8865556999808177,800.0,50.0,33.0,15,False,2,down,0.16666666666666666,16,0.24931079999078065,0.2986077000387013,0.547918500029482,0.8926991000189446,False,near-240,13,1,0,0.625,1,down,2,0
87,2,True,1.658401499968022,800.0,33.0,50.0,0,False,3,up,0.16666666666666666,60,0,0.9942044999916106,0.9942044999916106,1.0259920999524184,False,near-rnd3,13,5,3,3.125,0.5,up,16,0
88,1,True,2.8995996000012383,800.0,50.0,33.0,0,False,2,down,0.16666666666666666,28,0,0.49290579999797046,0.49290579999797046,1.962085900013335,False,near-000,13,6,3,3.75,1,down,8,0
89,1,True,1.6851171999587677,800.0,50.0,33.0,5,False,2,down,0.16666666666666666,16,0.09443090000422671,0.28981270000804216,0.38424360001226887,0.7530931000364944,False,near-080,13,2,0,1.25,1,down,8,0
90,1,True,1.6611370999598876,800.0,50.0,33.0,10,False,2,down,0.16666666666666666,12,0.16896799998357892,0.2792512000305578,0.44821920001413673,1.2607813000213355,False,near-160,13,2,1,1.25,1,down,8,0
91,1,True,1.1484472999582067,800.0,800.0,50.0,0,False,0,down,0.16666666666666666,0,0,0.023989400011487305,0.023989400011487305,1.4151152999838814,False,near-rndm,13,5,2,3.125,1,down,8,0
92,1,True,1.239269100013189,800.0,50.0,33.0,10,False,2,down,0.16666666666666666,12,0.17347300000255927,0.23044140002457425,0.4039144000271335,0.7612054999917746,False,near-160,14,3,1,1.875,1,down,8,0
93,2,True,1.9886722000082955,800.0,50.0,33.0,0,False,2,down,0.16666666666666666,28,0,0.4978385000140406,0.4978385000140406,0.43492090003564954,True,near-000,14,7,4,4.375,1,down,8,0
94,1,True,1.2986849999870174,800.0,50.0,33.0,5,False,2,up,0.16666666666666666,24,0.08838059997651726,0.43673809996107593,0.5251186999375932,0.7635405999608338,False,near-080,14,1,0,0.625,1,up,4,0
95,4,True,1.9732715000282042,800.0,800.0,50.0,0,False,0,up,0.16666666666666666,8,0,0.19741480000084266,0.19741480000084266,0.863945999997668,True,near-rndm,14,1,1,0.625,1,up,4,0
96,4,True,1.1600635999930091,800.0,33.0,50.0,0,False,3,up,0.16666666666666666,60,0,1.0126829000073485,1.0126829000073485,0.673737799981609,False,near-rnd3,14,6,3,3.75,0.5,up,16,0
97,3,True,2.873148599988781,800.0,50.0,33.0,15,False,2,down,0.16666666666666666,16,0.256157899973914,0.3261561999679543,0.5823140999418683,0.685900499986019,True,near-240,14,2,1,1.25,2,down,2,0
98,2,True,1.268348400015384,800.0,100.0,50.0,0,False,1,down,0.16666666666666666,16,0,0.3081625000340864,0.3081625000340864,0.8738265999709256,False,near-rnd2,14,4,2,2.5,1,down,8,0
99,1,True,0.9642701999982819,800.0,800.0,50.0,0,False,0,up,0.16666666666666666,8,0,0.15478979999898002,0.15478979999898002,0.7461522999801673,True,near-rndm,15,2,2,1.25,1,up,4,0
100,1,True,0.8764291999978013,800.0,50.0,33.0,0,False,2,down,0.16666666666666666,28,0,0.48755160003202036,0.48755160003202036,1.3805959000019357,True,near-000,15,8,5,5.0,1,down,8,0
101,2,True,1.538969699991867,800.0,33.0,50.0,0,False,3,up,0.16666666666666666,76,0,1.2529473000322469,1.2529473000322469,0.7340746999834664,False,near-rnd3,15,1,0,0.625,0.5,up,16,0
102,2,True,4.030692100001033,800.0,50.0,33.0,5,False,2,up,0.16666666666666666,24,0.09199919999809936,0.431846100022085,0.5238453000201844,0.6553636000026017,False,near-080,15,2,0,1.25,1,up,4,0
103,3,True,1.1056616000132635,800.0,50.0,33.0,10,False,2,down,0.16666666666666666,12,0.1839254000224173,0.2442109999828972,0.4281364000053145,0.6478633999940939,False,near-160,15,4,1,2.5,1,down,8,0
104,1,True,2.8827420999878086,800.0,100.0,50.0,0,False,1,down,0.16666666666666666,16,0,0.301952000008896,0.301952000008896,1.892345900007058,False,near-rnd2,15,5,2,3.125,1,down,8,0
105,2,True,1.3879084000363946,800.0,50.0,33.0,15,False,2,down,0.16666666666666666,16,0.2627020999789238,0.31602910003857687,0.5787312000175007,0.7019523999770172,True,near-240,15,3,2,1.875,2,down,2,0
106,1,True,1.5086945000221021,800.0,50.0,33.0,15,False,2,down,0.16666666666666666,16,0.24696270003914833,0.3049089999985881,0.5518717000377364,0.5101670999429189,False,near-240,16,4,2,2.5,2,down,2,0
107,2,True,1.369674799963832,800.0,50.0,33.0,0,False,2,down,0.16666666666666666,28,0,0.5008538000402041,0.5008538000402041,0.4928084000130184,True,near-000,16,9,6,5.625,1,down,8,1
108,2,True,1.0454353999812156,800.0,50.0,33.0,10,False,2,up,0.16666666666666666,20,0.19670620001852512,0.3829265999956988,0.5796328000142239,0.6529309999896213,False,near-160,16,1,0,0.625,1,up,4,0
109,1,True,2.386832299991511,800.0,100.0,50.0,0,False,1,up,0.16666666666666666,24,0,0.43711380002787337,0.43711380002787337,0.9008813999826089,False,near-rnd2,16,1,0,0.625,1,up,4,0
110,3,True,0.9617574000149034,800.0,50.0,33.0,5,False,2,up,0.16666666666666666,28,0.10415369999827817,0.5088423999841325,0.6129960999824107,0.36817400000290945,True,near-080,16,1,1,0.625,1,up,4,0
111,1,True,0.9883476999821141,800.0,800.0,50.0,0,False,0,up,0.16666666666666666,8,0,0.154885700030718,0.154885700030718,0.7930710000218824,True,near-rndm,16,3,3,1.875,1,up,4,0
112,1,True,1.555289299983997,800.0,33.0,50.0,0,False,3,up,0.16666666666666666,76,0,1.237401399994269,1.237401399994269,0.9535334000247531,False,near-rnd3,16,2,0,1.25,1.0,up,16,0
113,4,True,1.7769859000109136,800.0,33.0,50.0,0,False,3,up,0.16666666666666666,80,0,1.3294461999903433,1.3294461999903433,1.83173119998537,True,near-rnd3,17,1,1,0.625,1.0,up,16,0
114,4,True,1.018194299947936,800.0,100.0,50.0,0,False,1,up,0.16666666666666666,24,0,0.582655300037004,0.582655300037004,0.332023199996911,True,near-rnd2,17,2,1,1.25,1,up,4,0
115,2,True,1.1027956000179984,800.0,50.0,33.0,10,False,2,up,0.16666666666666666,20,0.1764846000005491,0.37935869995271787,0.555843299953267,0.7354334999690764,True,near-160,17,2,1,1.25,1,up,4,0
116,1,True,1.2637000000104308,800.0,50.0,33.0,0,False,2,down,0.16666666666666666,28,0,0.48716909997165203,0.48716909997165203,0.6216239000204951,True,near-000,17,10,7,6.25,1,down,8,1
117,2,True,1.7831727999728173,800.0,50.0,33.0,5,False,2,up,0.16666666666666666,28,0.09486900002229959,0.5075925000128336,0.6024615000351332,0.4803169000078924,True,near-080,17,2,2,1.25,1,up,4,0
118,2,True,1.1723357000155374,800.0,800.0,50.0,0,False,0,down,0.16666666666666666,4,0,0.10325410001678392,0.10325410001678392,1.311355999961961,False,near-rndm,17,1,0,0.625,1,down,2,0
119,4,True,2.4221592999529094,800.0,50.0,33.0,15,False,2,down,0.16666666666666666,16,0.26774960005423054,0.32168340001953766,0.5894330000737682,0.5971909000072628,False,near-240,17,5,2,3.125,2,down,2,0
120,4,True,3.1637998999794945,800.0,50.0,33.0,5,False,2,up,0.16666666666666666,28,0.11421469994820654,0.5124500999809243,0.6266647999291308,0.6475098999799229,False,near-080,18,3,2,1.875,1,up,4,0
121,1,True,1.7593380000325851,800.0,50.0,33.0,0,False,2,down,0.16666666666666666,28,0,0.48644140001852065,0.48644140001852065,0.5719661000184715,True,near-000,18,11,8,6.875,1,down,8,1
122,2,True,1.1331732999533415,800.0,800.0,50.0,0,False,0,down,0.16666666666666666,4,0,0.1084260999923572,0.1084260999923572,0.9209692999720573,True,near-rndm,18,2,1,1.25,2,down,2,0
123,3,True,1.8758047999581322,800.0,50.0,33.0,15,False,2,down,0.16666666666666666,16,0.26896170002873987,0.3125294999917969,0.5814912000205368,0.6158002999727614,True,near-240,18,6,3,3.75,2,down,2,0
124,4,True,1.328732099966146,800.0,100.0,50.0,0,False,1,up,0.16666666666666666,24,0,0.44847559998743236,0.44847559998743236,0.7364232999971136,True,near-rnd2,18,3,2,1.875,1,up,4,0
125,1,True,1.2939603999839164,800.0,33.0,50.0,0,False,3,up,0.16666666666666666,80,0,1.306306000042241,1.306306000042241,0.6978495999937877,True,near-rnd3,18,2,2,1.25,1.0,up,16,0
126,3,True,1.92309249995742,800.0,50.0,33.0,10,False,2,up,0.16666666666666666,20,0.18873629998415709,0.3878763999673538,0.5766126999515109,0.7156419999664649,False,near-160,18,3,1,1.875,1,up,4,0
127,4,True,1.6893123000045307,800.0,100.0,50.0,0,False,1,up,0.16666666666666666,24,0,0.46747639996465296,0.46747639996465296,0.43030839995481074,True,near-rnd2,19,4,3,2.5,1,up,4,0
128,4,True,1.2038807999924757,800.0,50.0,33.0,5,False,2,up,0.16666666666666666,28,0.12009440001565963,0.5099692000076175,0.6300636000232771,0.7698917000088841,True,near-080,19,4,3,2.5,1,up,4,0
129,2,True,1.283774400013499,800.0,33.0,50.0,0,False,3,up,0.16666666666666666,80,0,1.3051326999557205,1.3051326999557205,0.337395699985791,True,near-rnd3,19,3,3,1.875,1.0,up,16,0
130,1,True,2.1527916999766603,800.0,50.0,33.0,10,False,2,up,0.16666666666666666,20,0.17222909996053204,0.35762239998439327,0.5298514999449253,0.9889164000051096,True,near-160,19,4,2,2.5,1,up,4,0
131,1,True,2.9545331000117585,800.0,50.0,33.0,0,False,2,down,0.16666666666666666,24,0,0.4179644999676384,0.4179644999676384,0.9447976000374183,True,near-000,19,1,1,0.625,1,down,4,0
132,3,True,1.625314700009767,800.0,50.0,33.0,15,False,2,down,0.16666666666666666,16,0.25963909999700263,0.3124771000002511,0.5721161999972537,0.6169030999881215,True,near-240,19,7,4,4.375,2,down,2,0
133,2,True,1.3555668000481091,800.0,800.0,50.0,0,False,0,down,0.16666666666666666,4,0,0.10236030002124608,0.10236030002124608,0.6662090999889188,False,near-rndm,19,3,1,1.875,2,down,2,0
134,2,True,1.4328744999947958,800.0,100.0,50.0,0,False,1,up,0.16666666666666666,24,0,0.4321799000026658,0.4321799000026658,1.069009000028018,True,near-rnd2,20,5,4,3.125,1,up,4,0
135,1,True,1.312265100015793,800.0,33.0,50.0,0,False,3,down,0.16666666666666666,64,0,1.0465436999802478,1.0465436999802478,1.4714556999970227,False,near-rnd3,20,1,0,0.625,0.5,down,8,0
136,1,True,1.7478047999902628,800.0,50.0,33.0,0,False,2,down,0.16666666666666666,24,0,0.4190668999799527,0.4190668999799527,2.141232799971476,True,near-000,20,2,2,1.25,1,down,4,0
137,2,True,1.239917400002014,800.0,50.0,33.0,10,False,2,up,0.16666666666666666,20,0.17762249999213964,0.3738228000001982,0.5514452999923378,0.7060841000056826,True,near-160,20,5,3,3.125,1,up,4,0
138,4,True,1.1483359999838285,800.0,800.0,50.0,0,False,0,down,0.16666666666666666,4,0,0.13475639995886013,0.13475639995886013,0.9001784999854863,True,near-rndm,20,4,2,2.5,2,down,2,0
139,3,True,2.1503362999646924,800.0,50.0,33.0,15,False,2,down,0.16666666666666666,16,0.26291979994857684,0.3191975000081584,0.5821172999567352,0.6653325000079349,True,near-240,20,8,5,5.0,2,down,2,0
140,1,True,1.028456699976232,800.0,50.0,33.0,5,False,2,up,0.16666666666666666,28,0.09374179999576882,0.5032075999770314,0.5969493999728002,0.6359176999540068,False,near-080,20,5,3,3.125,1,up,4,0
141,1,True,1.5144302999833599,800.0,50.0,33.0,15,False,2,down,0.16666666666666666,16,0.24903419998008758,0.2963408000068739,0.5453749999869615,0.6202430000412278,False,near-240,21,9,5,5.625,2,down,2,1
142,2,True,1.102558400016278,800.0,800.0,50.0,0,False,0,down,0.16666666666666666,4,0,0.11093200003961101,0.11093200003961101,1.170882200007327,True,near-rndm,21,5,3,3.125,2,down,2,0
143,2,True,0.9696862999699079,800.0,50.0,33.0,0,False,2,down,0.16666666666666666,24,0,0.44446239998796955,0.44446239998796955,0.5206581000238657,True,near-000,21,3,3,1.875,1,down,4,0
144,1,True,1.6447341999737546,800.0,50.0,33.0,10,False,2,up,0.16666666666666666,20,0.17239979997975752,0.3764237000141293,0.5488234999938868,0.6050468999892473,False,near-160,21,6,3,3.75,1,up,4,0
145,1,True,1.2755213000345975,800.0,33.0,50.0,0,False,3,down,0.16666666666666666,64,0,1.0437053000205196,1.0437053000205196,0.8300985000096262,False,near-rnd3,21,2,0,1.25,1,down,8,0
146,3,True,1.5894739999785088,800.0,50.0,33.0,5,False,2,up,0.16666666666666666,28,0.1070781999733299,0.5177647999953479,0.6248429999686778,0.612379600002896,True,near-080,21,6,4,3.75,1,up,4,0
147,3,True,1.455266400007531,800.0,100.0,50.0,0,False,1,up,0.16666666666666666,24,0,0.44292719999793917,0.44292719999793917,0.3982143999892287,True,near-rnd2,21,6,5,3.75,1,up,4,0
148,1,True,1.2833539000130259,800.0,50.0,33.0,5,False,2,up,0.16666666666666666,28,0.09213209996232763,0.4966124999918975,0.5887445999542251,0.7537296999944374,False,near-080,22,7,4,4.375,1,up,4,0
149,2,True,3.5464936000062153,800.0,800.0,50.0,0,False,0,down,0.16666666666666666,4,0,0.10829649999504909,0.10829649999504909,1.3151824999949895,True,near-rndm,22,6,4,3.75,2,down,2,0
150,1,True,1.2940414000186138,800.0,50.0,33.0,15,False,2,down,0.16666666666666666,16,0.2514619000139646,0.30064640002092347,0.5521083000348881,0.7250358000164852,False,near-240,22,10,5,6.25,2,down,2,1
151,2,True,1.3139437000500038,800.0,50.0,33.0,10,False,2,up,0.16666666666666666,20,0.1747171999886632,0.3778543999651447,0.5525715999538079,0.5981716999667697,True,near-160,22,7,4,4.375,1,up,4,0
152,2,True,1.1835416000103578,800.0,50.0,33.0,0,False,2,down,0.16666666666666666,20,0,0.37123769999016076,0.37123769999016076,0.786984600010328,False,near-000,22,1,0,0.625,1,down,4,0
153,1,True,1.3315075000282377,800.0,100.0,50.0,0,False,1,down,0.16666666666666666,20,0,0.36462779995054007,0.36462779995054007,1.1169888000003994,False,near-rnd2,22,1,0,0.625,1,down,2,0
154,3,True,1.0519327000365593,800.0,33.0,50.0,0,False,3,up,0.16666666666666666,72,0,1.189858500030823,1.189858500030823,0.23681650002254173,True,near-rnd3,22,1,1,0.625,1,up,4,0
155,2,True,1.9334610999794677,800.0,50.0,33.0,5,False,2,up,0.16666666666666666,28,0.09297659998992458,0.49890519998734817,0.5918817999772727,0.7511525999871083,False,near-080,23,8,4,5.0,1,up,4,0
156,2,True,1.489510599989444,800.0,50.0,33.0,10,False,2,up,0.16666666666666666,20,0.17070980003336444,0.3672806000104174,0.5379904000437818,0.603935300023295,False,near-160,23,8,4,5.0,1,up,4,0
157,3,True,1.3586921999813057,800.0,100.0,50.0,0,False,1,down,0.16666666666666666,20,0,0.393758800055366,0.393758800055366,0.667330399970524,True,near-rnd2,23,2,1,1.25,2,down,2,0
158,4,True,1.8827410999801941,800.0,33.0,50.0,0,False,3,up,0.16666666666666666,72,0,1.2135678000049666,1.2135678000049666,0.6356846999842674,False,near-rnd3,23,2,1,1.25,1,up,4,0
159,4,True,1.0898483999771997,800.0,50.0,33.0,0,False,2,down,0.16666666666666666,20,0,0.40035559999523684,0.40035559999523684,0.6471476000151597,False,near-000,23,2,0,1.25,1,down,4,0
160,3,True,1.5918621000018902,800.0,800.0,50.0,0,False,0,down,0.16666666666666666,4,0,0.10738260002108291,0.10738260002108291,1.0033989000367,True,near-rndm,23,7,5,4.375,2,down,2,0
161,1,True,1.7630346000078134,800.0,50.0,33.0,15,False,2,down,0.16666666666666666,16,0.25221490004332736,0.44596879999153316,0.6981837000348605,0.6637794999987818,False,near-240,23,11,5,6.875,2,down,2,1
162,3,True,1.2105974999722093,800.0,50.0,33.0,5,False,2,up,0.16666666666666666,28,0.10530480003217235,0.5055730000021867,0.6108778000343591,0.8651587000349537,False,near-080,24,9,4,5.625,1,up,4,1
163,4,True,2.545851400005631,800.0,50.0,33.0,15,False,2,down,0.16666666666666666,16,0.26185830001486465,0.3211240000091493,0.582982300024014,0.3924461000133306,False,near-240,24,12,5,7.5,2,down,2,1
164,3,True,1.5266870000050403,800.0,33.0,50.0,0,False,3,up,0.16666666666666666,72,0,1.1921074000420049,1.1921074000420049,1.5845579999731854,False,near-rnd3,24,3,1,1.875,1,up,4,0
165,4,True,1.7565973000018857,800.0,50.0,33.0,10,False,2,up,0.16666666666666666,20,0.19156319997273386,0.4027635999955237,0.5943267999682575,1.238588499953039,False,near-160,24,9,4,5.625,1,up,4,1
166,1,True,2.0860962999868207,800.0,100.0,50.0,0,False,1,down,0.16666666666666666,20,0,0.35421279998263344,0.35421279998263344,1.2869218999985605,False,near-rnd2,24,3,1,1.875,2,down,2,0
167,1,True,1.7341228000004776,800.0,800.0,50.0,0,False,0,down,0.16666666666666666,4,0,0.08997939998516813,0.08997939998516813,1.6136659000185318,False,near-rndm,24,8,5,5.0,2,down,2,0
168,1,True,0.9952352000400424,800.0,50.0,33.0,0,False,2,up,0.16666666666666666,24,0,0.42590009997365996,0.42590009997365996,0.6772406999953091,True,near-000,24,1,1,0.625,1,up,2,0
169,3,True,1.1507733999751508,800.0,50.0,33.0,0,False,2,up,0.16666666666666666,24,0,0.45201670000096783,0.45201670000096783,0.6345410000067204,False,near-000,25,2,1,1.25,2,up,2,0
170,3,True,1.9339924000087194,800.0,50.0,33.0,15,False,2,up,0.16666666666666666,17,0.26638779998756945,0.34426590002840385,0.6106537000159733,0.2469950999948196,True,near-240,25,1,1,0.625,2,up,1,0
171,2,True,1.0718336999998428,800.0,50.0,33.0,10,False,2,up,0.16666666666666666,22,0.1739833999890834,0.4069215000490658,0.5809049000381492,0.3434543000184931,False,near-160,25,1,0,0.625,1,up,2,0
172,4,True,1.179017299960833,800.0,100.0,50.0,0,False,1,down,0.16666666666666666,20,0,0.40043690003221855,0.40043690003221855,0.5104011000366881,False,near-rnd2,25,4,1,2.5,2,down,2,0
173,2,True,1.4212478999979794,800.0,800.0,50.0,0,False,0,down,0.16666666666666666,4,0,0.10956709994934499,0.10956709994934499,0.6455308999866247,True,near-rndm,25,9,6,5.625,2,down,2,1
174,2,True,1.1621496999869123,800.0,50.0,33.0,5,False,2,up,0.16666666666666666,30,0.10199860000284389,0.5310849999659695,0.6330835999688134,0.4840258999611251,False,near-080,25,1,0,0.625,1,up,2,0
175,2,True,1.3892399000469595,800.0,33.0,50.0,0,False,3,up,0.16666666666666666,72,0,1.1894086999818683,1.1894086999818683,1.4164310999913141,False,near-rnd3,25,4,1,2.5,1,up,4,0
176,2,True,2.0479901999933645,800.0,50.0,33.0,0,False,2,up,0.16666666666666666,24,0,0.4303403000230901,0.4303403000230901,0.8514163999934681,False,near-000,26,3,1,1.875,2,up,2,0
177,2,True,1.2389148999936879,800.0,50.0,33.0,15,False,2,up,0.16666666666666666,17,0.2570865000016056,0.33760159998200834,0.5946880999836139,0.4115985999815166,True,near-240,26,2,2,1.25,3,up,1,0
178,2,True,1.0831578999641351,800.0,33.0,50.0,0,False,3,up,0.16666666666666666,76,0,1.2453798000351526,1.2453798000351526,0.6214123999816366,True,near-rnd3,26,1,1,0.625,1,up,4,0
179,1,True,3.165133499947842,800.0,100.0,50.0,0,False,1,down,0.16666666666666666,20,0,0.35913659998914227,0.35913659998914227,1.413680800003931,False,near-rnd2,26,5,1,3.125,2,down,2,0
180,1,True,2.5054955999949016,800.0,50.0,33.0,5,False,2,up,0.16666666666666666,30,0.08991969999624416,0.5270280999829993,0.6169477999792434,2.927532200003043,False,near-080,26,2,0,1.25,2,up,2,0
181,2,True,15.264761099999305,800.0,800.0,50.0,0,False,0,down,0.16666666666666666,4,0,0.10467030003201216,0.10467030003201216,1.52937970001949,False,near-rndm,26,10,6,6.25,2,down,2,1
182,2,True,2.539379399968311,800.0,50.0,33.0,10,False,2,up,0.16666666666666666,22,0.17191120004281402,0.40086819999851286,0.5727794000413269,0.5073896999820136,False,near-160,26,2,0,1.25,2,up,2,0
183,2,True,1.3427287000231445,800.0,50.0,33.0,10,False,2,up,0.16666666666666666,22,0.17510899994522333,0.4157155000139028,0.5908244999591261,0.6332307000411674,True,near-160,27,3,1,1.875,2,up,2,0
184,2,True,1.4813090999959968,800.0,100.0,50.0,0,False,1,up,0.16666666666666666,22,0,0.4107296000001952,0.4107296000001952,0.5639208999928087,True,near-rnd2,27,1,1,0.625,2,up,1,0
185,3,True,1.3420552000170574,800.0,50.0,33.0,15,False,2,up,0.16666666666666666,17,0.26233480003429577,0.3326971000060439,0.5950319000403397,0.48238470003707334,True,near-240,27,3,3,1.875,3,up,1,0
186,1,True,2.23589599999832,800.0,33.0,50.0,0,False,3,up,0.16666666666666666,76,0,1.2382345999940298,1.2382345999940298,1.0050611999467947,False,near-rnd3,27,2,1,1.25,1,up,4,0
187,2,True,1.181606099999044,800.0,800.0,50.0,0,False,0,down,0.16666666666666666,4,0,0.11022769997362047,0.11022769997362047,1.0400987999746576,True,near-rndm,27,11,7,6.875,2,down,2,1
188,2,True,1.936980600003153,800.0,50.0,33.0,0,False,2,up,0.16666666666666666,24,0,0.4468077000346966,0.4468077000346966,0.5871532000019215,True,near-000,27,4,2,2.5,2,up,2,0
189,4,True,1.8958851000061259,800.0,50.0,33.0,5,False,2,up,0.16666666666666666,30,0.10771529999328777,0.545040600001812,0.6527558999950998,0.6140647999709472,True,near-080,27,3,1,1.875,2,up,2,0
190,3,True,1.5521166000398807,800.0,50.0,33.0,15,False,2,up,0.16666666666666666,17,0.25735500000882894,0.3411257999832742,0.5984807999921031,1.6128245999570936,False,near-240,28,4,3,2.5,3,up,1,0
191,1,True,1.244317399978172,800.0,50.0,33.0,5,False,2,up,0.16666666666666666,30,0.08947900001658127,0.5226561999879777,0.612135200004559,0.9202340000192635,False,near-080,28,4,1,2.5,2,up,2,0
192,2,True,1.0969736999832094,800.0,33.0,50.0,0,False,3,up,0.16666666666666666,76,0,1.2473286999738775,1.2473286999738775,2.488352299958933,False,near-rnd3,28,3,1,1.875,1,up,4,0
193,3,True,1.3178977000061423,800.0,50.0,33.0,0,False,2,up,0.16666666666666666,24,0,0.4354077999596484,0.4354077999596484,0.6876623999560252,True,near-000,28,5,3,3.125,2,up,2,0
194,1,True,1.3591039000311866,800.0,50.0,33.0,10,False,2,up,0.16666666666666666,22,0.16705450002336875,0.4015732999541797,0.5686277999775484,0.8503758999868296,False,near-160,28,4,1,2.5,2,up,2,0
195,2,True,1.1084608999663033,800.0,800.0,50.0,0,False,0,down,0.16666666666666666,4,0,0.10607059998437762,0.10607059998437762,0.9780326999607496,True,near-rndm,28,12,8,7.5,2,down,2,1
196,2,True,1.3306364000309259,800.0,100.0,50.0,0,False,1,up,0.16666666666666666,22,0,0.40107040002476424,0.40107040002476424,0.5261920000193641,False,near-rnd2,28,2,1,1.25,2,up,1,0
197,2,True,1.3073305999860168,800.0,100.0,50.0,0,False,1,up,0.16666666666666666,22,0,0.39558220002800226,0.39558220002800226,0.4368813000037335,True,near-rnd2,29,3,2,1.875,2,up,1,0
198,1,True,1.6469186999602243,800.0,50.0,33.0,10,False,2,up,0.16666666666666666,22,0.16892319999169558,0.3932370999827981,0.5621602999744937,0.867050200002268,True,near-160,29,5,2,3.125,2,up,2,0
199,2,True,1.1567747999797575,800.0,33.0,50.0,0,False,3,up,0.16666666666666666,76,0,1.2447215000283904,1.2447215000283904,0.2912106000003405,True,near-rnd3,29,4,2,2.5,1,up,4,0
200,3,True,1.2274962999508716,800.0,50.0,33.0,0,False,2,up,0.16666666666666666,24,0,0.4463126999908127,0.4463126999908127,2.7696417999686673,False,near-000,29,6,3,3.75,2,up,2,0
201,2,True,1.196421000000555,800.0,50.0,33.0,5,False,2,up,0.16666666666666666,30,0.10130290000233799,0.5324926000321284,0.6337955000344664,0.47698749997653067,True,near-080,29,5,2,3.125,2,up,2,0
202,3,True,2.14898560004076,800.0,800.0,50.0,0,False,0,down,0.16666666666666666,4,0,0.10588560003088787,0.10588560003088787,1.3150437000440434,False,near-rndm,29,13,8,8.125,2,down,2,1
203,3,True,1.727386699989438,800.0,50.0,33.0,15,False,2,up,0.16666666666666666,17,0.26768600003561005,0.32659379998221993,0.59427980001783,0.5600635999580845,True,near-240,29,5,4,3.125,3,up,1,0
204,4,True,1.2759698000154458,800.0,50.0,33.0,15,False,2,up,0.16666666666666666,17,0.2661964999861084,0.3361478999722749,0.6023443999583833,0.8148532999912277,True,near-240,30,6,5,3.75,3,up,1,0
205,1,True,1.6389091000310145,800.0,100.0,50.0,0,False,1,up,0.16666666666666666,22,0,0.3878990999655798,0.3878990999655798,0.9346139999688603,False,near-rnd2,30,4,2,2.5,2,up,1,0
206,2,True,1.211035099986475,800.0,50.0,33.0,0,False,2,up,0.16666666666666666,24,0,0.4306106999865733,0.4306106999865733,0.7526032999739982,False,near-000,30,7,3,4.375,2,up,2,0
207,2,True,1.5176909999572672,800.0,50.0,33.0,5,False,2,up,0.16666666666666666,30,0.09502360003534704,0.536008499970194,0.631032100005541,0.34630679996917024,False,near-080,30,6,2,3.75,2,up,2,0
208,4,True,1.5549692999920808,800.0,33.0,50.0,0,False,3,up,0.16666666666666666,76,0,1.2619204000220634,1.2619204000220634,0.901699899986852,False,near-rnd3,30,5,2,3.125,1,up,4,0
209,2,True,1.8076001000008546,800.0,800.0,50.0,0,False,0,down,0.16666666666666666,4,0,0.10449729999527335,0.10449729999527335,0.7985489999991842,True,near-rndm,30,14,9,8.75,2,down,2,1
210,3,True,1.1137700999970548,800.0,50.0,33.0,10,False,2,up,0.16666666666666666,22,0.18714960000943393,0.41052059998037294,0.5976701999898069,0.9379719999851659,False,near-160,30,6,2,3.75,2,up,2,0
211,2,True,1.8544249999686144,800.0,50.0,33.0,5,False,2,up,0.16666666666666666,30,0.09486610000021756,0.5353432999690995,0.630209399969317,1.240422300004866,False,near-080,31,7,2,4.375,2,up,2,0
212,2,True,0.975272900017444,800.0,50.0,33.0,0,False,2,up,0.16666666666666666,24,0,0.4216526999953203,0.4216526999953203,0.7880298999953084,False,near-000,31,8,3,5.0,2,up,2,0
213,1,True,1.4989088000147603,800.0,33.0,50.0,0,False,3,up,0.16666666666666666,80,0,1.297563700005412,1.297563700005412,1.6109708999865688,False,near-rnd3,31,1,0,0.625,1,up,4,0
214,3,True,1.5116849000332877,800.0,800.0,50.0,0,False,0,down,0.16666666666666666,4,0,0.11629969999194145,0.11629969999194145,1.5456597000011243,False,near-rndm,31,15,9,9.375,2,down,2,1
215,1,True,1.2125203000032343,800.0,50.0,33.0,15,False,2,up,0.16666666666666666,17,0.25162759999511763,0.3184940999490209,0.5701216999441385,1.120553300017491,True,near-240,31,7,6,4.375,3,up,1,0
216,1,True,1.851693200005684,800.0,50.0,33.0,10,False,2,up,0.16666666666666666,22,0.17121050000423566,0.39627379999728873,0.5674843000015244,0.9247852000407875,False,near-160,31,7,2,4.375,2,up,2,0
217,2,True,1.3187940000207163,800.0,100.0,50.0,0,False,1,up,0.16666666666666666,22,0,0.40963579999515787,0.40963579999515787,0.5890955000068061,True,near-rnd2,31,5,3,3.125,2,up,1,0
218,2,True,1.8912873000372201,800.0,800.0,50.0,0,False,0,down,0.16666666666666666,4,0,0.10232130001531914,0.10232130001531914,1.0717103999922983,True,near-rndm,32,16,10,10.0,2,down,2,1
219,1,True,1.4251871000160463,800.0,50.0,33.0,5,False,2,up,0.16666666666666666,32,0.09105969994561747,0.5557518000132404,0.6468114999588579,0.6403552999836393,False,near-080,32,1,0,0.625,2,up,4,0
220,2,True,1.1175447000423446,800.0,50.0,33.0,15,False,2,up,0.16666666666666666,17,0.25823370000580326,0.3238530000089668,0.58208670001477,0.699047599977348,False,near-240,32,8,6,5.0,3,up,1,0
221,1,True,1.737489600025583,800.0,100.0,50.0,0,False,1,up,0.16666666666666666,22,0,0.3871128000319004,0.3871128000319004,0.5697976999799721,True,near-rnd2,32,6,4,3.75,2,up,1,0
222,2,True,1.5488075999892317,800.0,50.0,33.0,0,False,2,up,0.16666666666666666,24,0,0.43082539999159053,0.43082539999159053,0.812298400036525,False,near-000,32,9,3,5.625,2,up,2,1
223,4,True,1.2078075999743305,800.0,50.0,33.0,10,False,2,up,0.16666666666666666,24,0.19572020001942292,0.4602378999697976,0.6559580999892205,0.24382360000163317,True,near-160,32,1,1,0.625,2,up,2,0
224,1,True,1.542393899988383,800.0,33.0,50.0,0,False,3,up,0.16666666666666666,80,0,1.304891600040719,1.304891600040719,0.09160609997343272,True,near-rnd3,32,2,1,1.25,1,up,4,0
225,2,True,1.267433599976357,800.0,50.0,33.0,5,False,2,up,0.16666666666666666,32,0.09457830002065748,0.5668900999589823,0.6614683999796398,0.7522391999955289,True,near-080,33,2,1,1.25,1,up,4,0
226,2,True,1.4291418999782763,800.0,800.0,50.0,0,False,0,down,0.16666666666666666,4,0,0.09822149999672547,0.09822149999672547,0.6289303000085056,True,near-rndm,33,17,11,10.625,2,down,2,2
227,3,True,1.0651534000062384,800.0,33.0,50.0,0,False,3,up,0.16666666666666666,80,0,1.3269670000299811,1.3269670000299811,0.4999639000161551,True,near-rnd3,33,3,2,1.875,1,up,4,0
228,1,True,1.8279927999828942,800.0,50.0,33.0,0,False,2,up,0.16666666666666666,25,0,0.43924420000985265,0.43924420000985265,1.1138221999863163,False,near-000,33,1,0,0.625,2,up,1,0
229,3,True,1.6936984999920242,800.0,50.0,33.0,10,False,2,up,0.16666666666666666,24,0.17938660003710538,0.4454447000171058,0.6248313000542112,0.6474417999852449,True,near-160,33,2,2,1.25,2,up,2,0
230,2,True,1.3623954000067897,800.0,100.0,50.0,0,False,1,up,0.16666666666666666,22,0,0.39769180002622306,0.39769180002622306,0.7717988999793306,True,near-rnd2,33,7,5,4.375,2,up,1,0
231,2,True,1.6198751000338234,800.0,50.0,33.0,0,False,2,up,0.16666666666666666,25,0,0.45464210002683103,0.45464210002683103,1.4096860000281595,False,near-000,34,2,0,1.25,2,up,1,0
232,2,True,2.0871455000014976,800.0,800.0,50.0,0,False,0,down,0.16666666666666666,4,0,0.10322940000332892,0.10322940000332892,0.9541345000034198,True,near-rndm,34,18,12,11.25,2,down,2,2
233,2,True,1.127624900022056,800.0,33.0,50.0,0,False,3,up,0.16666666666666666,80,0,1.3132736000115983,1.3132736000115983,0.0981997000053525,True,near-rnd3,34,4,3,2.5,1,up,4,0
234,1,True,2.6191748999990523,800.0,50.0,33.0,10,False,2,up,0.16666666666666666,24,0.17143210000358522,0.4331215000129305,0.6045536000165157,1.4374295999878086,False,near-160,34,3,2,1.875,2,up,2,0
235,3,True,1.052841000026092,800.0,100.0,50.0,0,False,1,up,0.16666666666666666,22,0,0.4087898999569006,0.4087898999569006,0.7202584000187926,True,near-rnd2,34,8,6,5.0,2,up,1,0
236,1,True,1.3564932000008412,800.0,50.0,33.0,5,False,2,up,0.16666666666666666,32,0.09283899998990819,0.5539694000035524,0.6468083999934606,0.45019339997088537,True,near-080,34,3,2,1.875,1,up,4,0
237,2,True,1.6043829999980517,800.0,100.0,50.0,0,False,1,up,0.16666666666666666,22,0,0.40462859999388456,0.40462859999388456,1.4953095999662764,True,near-rnd2,35,9,7,5.625,2,up,1,1
238,1,True,2.1006930000148714,800.0,50.0,33.0,10,False,2,up,0.16666666666666666,24,0.17441080004209653,0.42343119997531176,0.5978420000174083,1.2896821000031196,True,near-160,35,4,3,2.5,2,up,2,0
239,1,True,1.9901179000153206,800.0,50.0,33.0,0,False,2,up,0.16666666666666666,25,0,0.4453650999930687,0.4453650999930687,1.8247139999875799,False,near-000,35,3,0,1.875,2,up,1,0
240,2,True,1.7328963999752887,800.0,50.0,33.0,5,False,2,up,0.16666666666666666,32,0.09762849996332079,0.5623094000038691,0.6599378999671899,1.6095788999809884,True,near-080,35,4,3,2.5,1,up,4,0
241,2,True,1.0171908999909647,800.0,800.0,50.0,0,False,0,down,0.16666666666666666,4,0,0.09813439997378737,0.09813439997378737,1.159705700003542,True,near-rndm,35,19,13,11.875,2,down,2,2
242,1,True,1.2999151999829337,800.0,33.0,50.0,0,False,3,up,0.16666666666666666,80,0,1.2991799999726936,1.2991799999726936,0.18685140000889078,True,near-rnd3,35,5,4,3.125,1,up,4,0
243,3,True,1.1663567000068724,800.0,50.0,33.0,0,False,2,up,0.16666666666666666,25,0,0.45597720000660047,0.45597720000660047,1.5039701000205241,False,near-000,36,4,0,2.5,2,up,1,0
244,1,True,1.677607399993576,800.0,100.0,50.0,0,False,1,up,0.16666666666666666,22,0,0.3915551000391133,0.3915551000391133,0.886341099976562,False,near-rnd2,36,10,7,6.25,2,up,1,1
245,1,True,1.9796773999696597,800.0,800.0,50.0,0,False,0,down,0.16666666666666666,4,0,0.09494089998770505,0.09494089998770505,1.3821366999763995,True,near-rndm,36,20,14,12.5,2,down,2,2
246,2,True,1.6354191999998875,800.0,50.0,33.0,10,False,2,up,0.16666666666666666,24,0.17527499998686835,0.445321100007277,0.6205960999941453,1.3325534000177868,False,near-160,36,5,3,3.125,2,up,2,0
247,1,True,1.5310967999976128,800.0,33.0,50.0,0,False,3,up,0.16666666666666666,80,0,1.309568099968601,1.309568099968601,0.4451751000015065,True,near-rnd3,36,6,5,3.75,1,up,4,0
248,3,True,1.111074100015685,800.0,50.0,33.0,5,False,2,up,0.16666666666666666,32,0.10395339998649433,0.5814208999508992,0.6853742999373935,0.5117357000126503,True,near-080,36,5,4,3.125,1,up,4,0
249,2,True,1.2014595000073314,800.0,100.0,50.0,0,False,1,up,0.16666666666666666,22,0,0.40308309998363256,0.40308309998363256,0.9969674999592826,True,near-rnd2,37,11,8,6.875,2,up,1,1
250,2,True,1.1929963000002317,800.0,800.0,50.0,0,False,0,down,0.16666666666666666,4,0,0.10034859995357692,0.10034859995357692,1.7982595000066794,False,near-rndm,37,21,14,13.125,2,down,2,2
251,1,True,0.9567182999453507,800.0,50.0,33.0,10,False,2,up,0.16666666666666666,24,0.1712427999591455,0.4253731000353582,0.5966158999945037,0.9341894999961369,False,near-160,37,6,3,3.75,2,up,2,0
252,2,True,1.8520911000086926,800.0,33.0,50.0,0,False,3,down,0.16666666666666666,76,0,1.2696404000162147,1.2696404000162147,1.4948147000395693,True,near-rnd3,37,1,1,0.625,1,down,2,0
253,4,True,4.021725500002503,800.0,50.0,33.0,0,False,2,up,0.16666666666666666,26,0,0.47152449999703094,0.47152449999703094,0.5239920999738388,True,near-000,37,1,1,0.625,2,up,1,0
254,1,True,1.3330359000246972,800.0,50.0,33.0,5,False,2,up,0.16666666666666666,32,0.09105459996499121,0.5566412000334822,0.6476957999984734,0.7602909000124782,False,near-080,37,6,4,3.75,1,up,4,0
255,2,True,0.9889614999992773,800.0,50.0,33.0,5,False,2,up,0.16666666666666666,32,0.09678730001905933,0.5687612000037916,0.6655485000228509,0.5710216999868862,True,near-080,38,7,5,4.375,1,up,4,0
256,1,True,1.7990754999918863,800.0,50.0,33.0,0,False,2,up,0.16666666666666666,26,0,0.4502734999987297,0.4502734999987297,0.6435242999577895,True,near-000,38,2,2,1.25,2,up,1,0
257,1,True,1.0301800000015646,800.0,33.0,50.0,0,False,3,down,0.16666666666666666,76,0,1.2334635000443086,1.2334635000443086,0.0727148000150919,True,near-rnd3,38,2,2,1.25,2,down,2,0
258,1,True,2.1400274999905378,800.0,100.0,50.0,0,False,1,up,0.16666666666666666,22,0,0.3908942000125535,0.3908942000125535,1.6455323999980465,False,near-rnd2,38,12,8,7.5,2,up,1,1
259,1,True,1.142555899976287,800.0,50.0,33.0,10,False,2,up,0.16666666666666666,24,0.1679234000039287,0.54689400002826,0.7148174000321887,0.580580200010445,True,near-160,38,7,4,4.375,2,up,2,0
260,2,True,1.4260045000119135,800.0,800.0,50.0,0,False,0,down,0.16666666666666666,4,0,0.1004086000029929,0.1004086000029929,0.856132399989292,True,near-rndm,38,22,15,13.75,2,down,2,2
261,2,True,1.2078576000058092,800.0,100.0,50.0,0,False,1,up,0.16666666666666666,22,0,0.4106478000176139,0.4106478000176139,0.6022791000432335,True,near-rnd2,39,13,9,8.125,2,up,1,1
262,1,True,1.4777695999946445,800.0,33.0,50.0,0,False,3,down,0.16666666666666666,76,0,1.2383475999813527,1.2383475999813527,0.15976269997190684,True,near-rnd3,39,3,3,1.875,2,down,2,0
263,3,True,1.1504925999906845,800.0,50.0,33.0,5,False,2,up,0.16666666666666666,32,0.10026239999569952,0.5748735999804921,0.6751359999761917,0.5545228999690153,True,near-080,39,8,6,5.0,1,up,4,0
264,4,True,1.2650930999661796,800.0,50.0,33.0,10,False,2,up,0.16666666666666666,24,0.1836030000122264,0.44960180000634864,0.633204800018575,0.6745915999636054,True,near-160,39,8,5,5.0,2,up,2,0
265,3,True,1.2174353000009432,800.0,50.0,33.0,0,False,2,up,0.16666666666666666,26,0,0.4839847999974154,0.4839847999974154,0.8168630999862216,True,near-000,39,3,3,1.875,2,up,1,0
266,2,True,1.4153184999595396,800.0,800.0,50.0,0,False,0,down,0.16666666666666666,4,0,0.10545190004631877,0.10545190004631877,0.7870631999685429,True,near-rndm,39,23,16,14.375,2,down,2,2
267,3,True,1.0748254000209272,800.0,100.0,50.0,0,False,1,up,0.16666666666666666,22,0,0.4040835999767296,0.4040835999767296,0.645216100034304,True,near-rnd2,40,14,10,8.75,2,up,1,1
268,3,True,1.0708711000042967,800.0,800.0,50.0,0,False,0,down,0.16666666666666666,4,0,0.11555659997975454,0.11555659997975454,0.7762291000108235,True,near-rndm,40,24,17,15.0,2,down,2,2
269,2,True,1.0365046000224538,800.0,50.0,33.0,10,False,2,up,0.16666666666666666,24,0.1778063999954611,0.4525353999924846,0.6303417999879457,0.8131351000047289,True,near-160,40,9,6,5.625,2,up,2,1
270,2,True,1.1861876000184566,800.0,50.0,33.0,5,False,2,up,0.16666666666666666,32,0.10118180001154542,0.5715852999710478,0.6727670999825932,0.6557086000102572,True,near-080,40,9,7,5.625,1,up,4,1
271,4,True,1.4537067999481224,800.0,50.0,33.0,0,False,2,up,0.16666666666666666,26,0,0.4715141999768093,0.4715141999768093,1.070419600000605,True,near-000,40,4,4,2.5,2,up,1,0
272,2,True,3.0196210000431165,800.0,33.0,50.0,0,False,3,down,0.16666666666666666,76,0,1.245516500028316,1.245516500028316,0.3873491999693215,True,near-rnd3,40,4,4,2.5,2,down,2,0
273,3,True,1.198958799999673,800.0,33.0,50.0,0,False,3,down,0.16666666666666666,76,0,1.3616704000160098,1.3616704000160098,0.37206600001081824,True,near-rnd3,41,5,5,3.125,2,down,2,0
274,1,True,2.077545000007376,800.0,50.0,33.0,5,False,2,down,0.16666666666666666,30,0.0896305000060238,0.5165005999733694,0.6061310999793932,0.6876815999858081,True,near-080,41,1,1,0.625,1,down,1,0
275,1,True,1.5061615000013262,800.0,50.0,33.0,0,False,2,up,0.16666666666666666,26,0,0.45886400004383177,0.45886400004383177,1.1071417999919504,True,near-000,41,5,5,3.125,2,up,1,0
276,2,True,1.3362705000326969,800.0,50.0,33.0,10,False,2,up,0.16666666666666666,24,0.17483559995889664,0.4457980000297539,0.6206335999886505,0.5847756000002846,True,near-160,41,10,7,6.25,2,up,2,1
277,1,True,1.2117422000155784,800.0,100.0,50.0,0,False,1,up,0.16666666666666666,22,0,0.3929509000154212,0.3929509000154212,0.8392802000162192,True,near-rnd2,41,15,11,9.375,2,up,1,1
278,3,True,1.2938798999530263,800.0,100.0,50.0,0,False,1,up,0.16666666666666666,22,0,0.41393839998636395,0.41393839998636395,0.5970810999860987,True,near-rnd2,42,16,12,10.0,2,up,1,1
279,2,True,1.1853419999824837,800.0,50.0,33.0,5,False,2,down,0.16666666666666666,30,0.09478520002448931,0.5324054999509826,0.6271906999754719,0.44825909996870905,True,near-080,42,2,2,1.25,2,down,1,0
280,1,True,1.7875555999926291,800.0,33.0,50.0,0,False,3,down,0.16666666666666666,76,0,1.234804500010796,1.234804500010796,0.30840189999435097,True,near-rnd3,42,6,6,3.75,2,down,2,0
281,4,True,1.8172160999965854,800.0,50.0,33.0,10,False,2,up,0.16666666666666666,24,0.19588160002604127,0.4602211000164971,0.6561027000425383,0.4614411000511609,True,near-160,42,11,8,6.875,2,up,2,1
282,1,True,1.8218602000270039,800.0,50.0,33.0,0,False,2,up,0.16666666666666666,26,0,0.45344630000181496,0.45344630000181496,0.7522071999846958,False,near-000,42,6,5,3.75,2,up,1,0
283,3,True,1.2515309999580495,800.0,33.0,50.0,0,False,3,down,0.16666666666666666,74,0,1.2270681000081822,1.2270681000081822,0.6122992999735288,True,near-rnd3,43,1,1,0.625,2,down,2,0
284,3,True,1.1851040000328794,800.0,50.0,33.0,10,False,2,up,0.16666666666666666,24,0.1798665000242181,0.4385474000009708,0.6184139000251889,0.7814418999478221,True,near-160,43,12,9,7.5,2,up,2,1
285,2,True,1.4785991999669932,800.0,50.0,33.0,5,False,2,down,0.16666666666666666,30,0.09951949998503551,0.5353069999837317,0.6348264999687672,0.9828831000486389,False,near-080,43,3,2,1.875,2,down,1,0
286,3,True,1.6001510000205599,800.0,50.0,33.0,0,False,2,up,0.16666666666666666,26,0,0.47783610003534704,0.47783610003534704,0.5506113999872468,True,near-000,43,7,6,4.375,2,up,1,0
287,1,True,1.3393338000169024,800.0,33.0,50.0,0,False,3,down,0.16666666666666666,74,0,1.2079739999608137,1.2079739999608137,0.22217049996834248,True,near-rnd3,44,2,2,1.25,2,down,2,0
288,1,True,1.8166692999657243,800.0,50.0,33.0,10,False,2,up,0.16666666666666666,24,0.17503039998700842,0.42794989998219535,0.6029802999692038,0.8008152999682352,True,near-160,44,13,10,8.125,2,up,2,1
289,2,True,1.0878190000075847,800.0,50.0,33.0,0,False,2,up,0.16666666666666666,26,0,0.4643604999873787,0.4643604999873787,0.6969888000166975,False,near-000,44,8,6,5.0,2,up,1,0
290,2,True,1.189500999986194,800.0,50.0,33.0,5,False,2,down,0.16666666666666666,30,0.09987599996384233,0.5306084000039846,0.6304843999678269,0.6754788000253029,True,near-080,44,4,3,2.5,2,down,1,0
291,4,True,1.287845799990464,800.0,50.0,33.0,5,False,2,down,0.16666666666666666,30,0.10513330000685528,0.5415591999772005,0.6466924999840558,0.7240620999946259,True,near-080,45,5,4,3.125,2,down,1,0
292,4,True,1.2920438000001013,800.0,50.0,33.0,0,False,2,up,0.16666666666666666,26,0,0.4782107000355609,0.4782107000355609,1.5696496000164188,True,near-000,45,9,7,5.625,2,up,1,1
293,3,True,1.2362823000294156,800.0,50.0,33.0,10,False,2,up,0.16666666666666666,24,0.18474830000195652,0.4484614999964833,0.6332097999984398,0.5140259999898262,True,near-160,45,14,11,8.75,2,up,2,1
294,2,True,1.7124390000244603,800.0,33.0,50.0,0,False,3,down,0.16666666666666666,74,0,1.2133966999826953,1.2133966999826953,0.7665591999539174,False,near-rnd3,45,3,2,1.875,2,down,2,0
295,2,True,1.5420628999709152,800.0,50.0,33.0,5,False,2,down,0.16666666666666666,30,0.09670489997370169,0.534623300016392,0.6313281999900937,0.7622157000005245,True,near-080,46,6,5,3.75,2,down,1,0
296,4,True,0.9113107000011951,800.0,33.0,50.0,0,False,3,down,0.16666666666666666,74,0,1.223448599979747,1.223448599979747,0.718855099985376,True,near-rnd3,46,4,3,2.5,2,down,2,0
297,1,True,1.3907212000340223,800.0,50.0,33.0,10,False,2,down,0.16666666666666666,23,0.17293010000139475,0.4149473999859765,0.5878774999873713,1.2484899000264704,True,near-160,46,1,1,0.625,2,down,1,0
298,2,True,2.2849263999960385,800.0,50.0,33.0,0,False,2,up,0.16666666666666666,26,0,0.4599527000100352,0.4599527000100352,0.6004684999934398,True,near-000,46,10,8,6.25,2,up,1,1
299,1,True,1.710687400016468,800.0,50.0,33.0,5,False,2,down,0.16666666666666666,30,0.17464680003467947,0.5159685999969952,0.6906154000316747,0.5122843999997713,True,near-080,47,7,6,4.375,2,down,1,0
300,2,True,1.5686391000053845,800.0,50.0,33.0,10,False,2,down,0.16666666666666666,23,0.1704044999787584,0.4114943000022322,0.5818987999809906,0.6252132999943569,True,near-160,47,2,2,1.25,3,down,1,0
301,1,True,1.8030696000205353,800.0,50.0,33.0,0,False,2,up,0.16666666666666666,26,0,0.4542848999844864,0.4542848999844864,0.5751755000092089,False,near-000,47,11,8,6.875,2,up,1,1
302,3,True,1.3560115000000224,800.0,33.0,50.0,0,False,3,down,0.16666666666666666,74,0,1.2257166000199504,1.2257166000199504,0.6619764000060968,True,near-rnd3,47,5,4,3.125,2,down,2,0
303,1,True,1.853409899980761,800.0,50.0,33.0,5,False,2,down,0.16666666666666666,30,0.09081369999330491,0.5197773000109009,0.6105910000042059,0.5600423000287265,True,near-080,48,8,7,5.0,2,down,1,0
304,1,True,2.287605000019539,800.0,50.0,33.0,0,False,2,up,0.16666666666666666,26,0,0.45701249997364357,0.45701249997364357,0.531647099996917,True,near-000,48,12,9,7.5,2,up,1,1
305,3,True,1.7280242000124417,800.0,50.0,33.0,10,False,2,down,0.16666666666666666,23,0.18135410000104457,0.43816169997444376,0.6195157999754883,0.5458679999574088,True,near-160,48,3,3,1.875,3,down,1,0
306,2,True,1.7757054000394419,800.0,33.0,50.0,0,False,3,down,0.16666666666666666,74,0,1.2224036999978125,1.2224036999978125,0.3539354999666102,True,near-rnd3,48,6,5,3.75,2,down,2,0
307,2,True,1.3250739999930374,800.0,50.0,33.0,5,False,2,down,0.16666666666666666,30,0.09419469995191321,0.5290345999528654,0.6232292999047786,0.50038849998964,True,near-080,49,9,8,5.625,2,down,1,1
308,2,True,1.0979419000213966,800.0,50.0,33.0,0,False,2,up,0.16666666666666666,26,0,0.466108999971766,0.466108999971766,0.6739943000138737,True,near-000,49,13,10,8.125,2,up,1,1
309,2,True,1.0481720000389032,800.0,50.0,33.0,10,False,2,down,0.16666666666666666,23,0.1813827999867499,0.4248751000268385,0.6062579000135884,0.4913239000015892,True,near-160,49,4,4,2.5,3,down,1,0
310,3,True,1.5387542999815196,800.0,33.0,50.0,0,False,3,down,0.16666666666666666,74,0,1.2317862000199966,1.2317862000199966,0.7744650000240654,False,near-rnd3,49,7,5,4.375,2,down,2,0
311,1,True,1.6138476000051014,800.0,50.0,33.0,0,False,2,up,0.16666666666666666,26,0,0.4511458000051789,0.4511458000051789,1.1610799999907613,True,near-000,50,14,11,8.75,2,up,1,1
312,3,True,1.1315048999967985,800.0,50.0,33.0,10,False,2,down,0.16666666666666666,23,0.1840498999808915,0.43280290003167465,0.6168528000125661,0.6080064999987371,True,near-160,50,5,5,3.125,3,down,1,0
313,1,True,1.7705670000286773,800.0,33.0,50.0,0,False,3,down,0.16666666666666666,74,0,1.2063254000386223,1.2063254000386223,0.6755970999947749,False,near-rnd3,50,8,5,5.0,2,down,2,0
314,2,True,1.273573699989356,800.0,50.0,33.0,5,False,2,down,0.16666666666666666,29,0.09913520002737641,0.5097127999761142,0.6088480000034906,0.5798872000304982,False,near-080,50,1,0,0.625,2,down,1,0
315,3,True,1.2804764999891631,800.0,50.0,33.0,5,False,2,down,0.16666666666666666,29,0.10190170002169907,0.5322068000095896,0.6341085000312887,1.2889548999955878,False,near-080,51,2,0,1.25,3,down,1,0
316,3,True,2.3002758999937214,800.0,50.0,33.0,10,False,2,down,0.16666666666666666,23,0.17786559998057783,0.4388957999763079,0.6167613999568857,0.5411065999651328,True,near-160,51,6,6,3.75,3,down,1,0
317,1,True,1.842386800039094,800.0,33.0,50.0,0,False,3,down,0.16666666666666666,74,0,1.2040995999705046,1.2040995999705046,0.18393139995168895,True,near-rnd3,51,9,6,5.625,2,down,2,1
318,2,True,1.1223976000328548,800.0,50.0,33.0,5,False,2,down,0.16666666666666666,29,0.09288969996850938,0.5086388000054285,0.6015284999739379,0.5271895999903791,True,near-080,52,3,1,1.875,3,down,1,0
319,3,True,1.1755451000062749,800.0,33.0,50.0,0,False,3,down,0.16666666666666666,74,0,1.222840600006748,1.222840600006748,0.7106493999599479,True,near-rnd3,52,10,7,6.25,2,down,2,1
320,4,True,1.3553765999968164,800.0,50.0,33.0,10,False,2,down,0.16666666666666666,23,0.18447880004532635,0.43949980003526434,0.6239786000805907,0.5526213999837637,True,near-160,52,7,7,4.375,3,down,1,0
321,3,True,1.502122700039763,800.0,33.0,50.0,0,False,3,down,0.16666666666666666,74,0,1.2318352000438608,1.2318352000438608,0.7063184999860823,True,near-rnd3,53,11,8,6.875,2,down,2,1
322,2,True,1.2412794000119902,800.0,50.0,33.0,10,False,2,down,0.16666666666666666,23,0.17720439995173365,0.4167330000200309,0.5939373999717645,0.4941463000141084,True,near-160,53,8,8,5.0,3,down,1,0
323,4,True,1.5429190999711864,800.0,50.0,33.0,5,False,2,down,0.16666666666666666,29,0.11191439995309338,0.5453981999889947,0.6573125999420881,1.0269195000291802,True,near-080,53,4,2,2.5,3,down,1,0
324,2,True,1.267365800042171,800.0,50.0,33.0,5,False,2,down,0.16666666666666666,29,0.09374030004255474,0.5221355999819934,0.6158759000245482,0.7852387999882922,False,near-080,54,5,2,3.125,3,down,1,0
325,2,True,1.1901916000060737,800.0,33.0,50.0,0,False,3,down,0.16666666666666666,74,0,1.2191351000219584,1.2191351000219584,0.9602621999802068,False,near-rnd3,54,12,8,7.5,2,down,2,1
326,2,True,1.1004454999929294,800.0,33.0,50.0,0,False,3,down,0.16666666666666666,74,0,1.2170071000000462,1.2170071000000462,0.8960435999906622,True,near-rnd3,55,13,9,8.125,2,down,2,1
327,1,True,1.795670599967707,800.0,50.0,33.0,5,False,2,down,0.16666666666666666,29,0.09293189999880269,0.5074614000041038,0.6003933000029065,0.7880699000088498,True,near-080,55,6,3,3.75,3,down,1,0
328,1,True,1.6460041999816895,800.0,50.0,33.0,5,False,2,down,0.16666666666666666,29,0.09209589997772127,0.5061109000234865,0.5982068000012077,1.4689227000344545,False,near-080,56,7,3,4.375,3,down,1,0
329,1,True,2.896739099989645,800.0,33.0,50.0,0,False,3,down,0.16666666666666666,74,0,1.2054955999483354,1.2054955999483354,0.6708825000096112,False,near-rnd3,56,14,9,8.75,2,down,2,1
330,2,True,1.5004035000456497,800.0,33.0,50.0,0,False,3,down,0.16666666666666666,74,0,1.2165245999931358,1.2165245999931358,0.9617790999473073,True,near-rnd3,57,15,10,9.375,2,down,2,1
331,1,True,5.057948699977715,800.0,50.0,33.0,5,False,2,down,0.16666666666666666,29,0.09054149995790794,0.5041720999870449,0.5947135999449529,0.6801475000102073,True,near-080,57,8,4,5.0,3,down,1,0
