trial,primeIter,primeCorrect,primeTime,primeDepth,stimDepth,extraDepth,driveFrames,nearToFar,diopters,direction,size,intensity,extraLatency,mainLatency,totalLatency,responseTime,correct,caseLabel,caseTrial,trialsAtStep,stepCorrect,expected,w,direction,stepsize,stepChange
1,1,True,5.220710800029337,800.0,50.0,33.0,10,False,2,start,0.16666666666666666,60,0.17004220001399517,1.013177499989979,1.1832197000039741,0.4482755000353791,True,near-160,1,1,1,0.625,0.5,start,16,0
2,2,True,2.3493468000087887,800.0,50.0,33.0,5,False,2,start,0.16666666666666666,60,0.09365399996750057,1.0127763000200503,1.1064302999875508,0.35750340000959113,True,near-080,1,1,1,0.625,0.5,start,16,0
3,3,True,1.7352051999769174,800.0,33.0,50.0,0,False,3,start,0.16666666666666666,60,0,1.0104091999819502,1.0104091999819502,0.4263148999889381,True,near-rnd3,1,1,1,0.625,0.5,start,16,0
4,4,True,1.4484190999646671,800.0,100.0,50.0,0,False,1,start,0.16666666666666666,60,0,1.028544599947054,1.028544599947054,0.34705969999777153,True,near-rnd2,1,1,1,0.625,0.5,start,16,0
5,2,True,3.1755849000182934,800.0,50.0,33.0,15,False,2,start,0.16666666666666666,60,0.2604700999800116,1.0252137999632396,1.2856838999432512,0.3505505999783054,True,near-240,1,1,1,0.625,0.5,start,16,0
6,2,True,1.1657364999991842,800.0,50.0,33.0,0,False,2,start,0.16666666666666666,60,0,1.0020057000219822,1.0020057000219822,0.33551750000333413,True,near-000,1,1,1,0.625,0.5,start,16,0
7,1,True,2.235930400027428,800.0,800.0,50.0,0,False,0,start,0.16666666666666666,60,0,0.9903684000018984,0.9903684000018984,0.3410101000335999,True,near-rndm,1,1,1,0.625,0.5,start,16,0
8,4,True,3.7020444000372663,800.0,33.0,50.0,0,False,3,start,0.16666666666666666,44,0,0.7538099999655969,0.7538099999655969,0.6119238999672234,True,near-rnd3,2,1,1,0.625,1.0,start,16,0
9,2,True,1.593720500008203,800.0,800.0,50.0,0,False,0,start,0.16666666666666666,44,0,0.7357673000078648,0.7357673000078648,0.43266940000467,True,near-rndm,2,1,1,0.625,1.0,start,16,0
10,2,True,1.149968900019303,800.0,50.0,33.0,10,False,2,start,0.16666666666666666,44,0.17779639997752383,0.7580379000282846,0.9358343000058085,0.3798450999893248,True,near-160,2,1,1,0.625,1.0,start,16,0
11,2,True,1.4009894000482745,800.0,50.0,33.0,5,False,2,start,0.16666666666666666,44,0.09766060003312305,0.7511249000090174,0.8487855000421405,0.5577675999957137,True,near-080,2,1,1,0.625,1.0,start,16,0
12,4,True,1.2039953999919817,800.0,50.0,33.0,0,False,2,start,0.16666666666666666,44,0,0.7785991999553517,0.7785991999553517,0.6440767999738455,True,near-000,2,1,1,0.625,1.0,start,16,0
13,1,True,1.7547387000522576,800.0,100.0,50.0,0,False,1,start,0.16666666666666666,44,0,0.744303299987223,0.744303299987223,0.39542290003737435,True,near-rnd2,2,1,1,0.625,1.0,start,16,0
14,1,True,3.745842900010757,800.0,50.0,33.0,15,False,2,start,0.16666666666666666,44,0.25413079996360466,0.7415624999557622,0.9956932999193668,0.9664154999773018,True,near-240,2,1,1,0.625,1.0,start,16,0
15,4,True,1.951669599977322,800.0,100.0,50.0,0,False,1,start,0.16666666666666666,28,0,0.537530500034336,0.537530500034336,0.7667166999890469,True,near-rnd2,3,1,1,0.625,1.0,start,16,0
16,1,True,1.9063698000391014,800.0,800.0,50.0,0,False,0,start,0.16666666666666666,28,0,0.4754475000081584,0.4754475000081584,0.5006589000113308,True,near-rndm,3,1,1,0.625,1.0,start,16,0
17,1,True,1.7938534999848343,800.0,50.0,33.0,10,False,2,start,0.16666666666666666,28,0.17191919998731464,0.48576349997892976,0.6576826999662444,0.4570227000513114,True,near-160,3,1,1,0.625,1.0,start,16,0
18,1,True,2.120667900016997,800.0,50.0,33.0,5,False,2,start,0.16666666666666666,28,0.08998099999735132,0.48797139996895567,0.577952399966307,0.8872263000230305,True,near-080,3,1,1,0.625,1.0,start,16,0
19,2,True,1.4862906000344083,800.0,33.0,50.0,0,False,3,start,0.16666666666666666,28,0,0.4836866999976337,0.4836866999976337,1.437147399992682,False,near-rnd3,3,1,0,0.625,1.0,start,16,0
20,2,True,1.6981759000336751,800.0,50.0,33.0,0,False,2,start,0.16666666666666666,28,0,0.5890260000014678,0.5890260000014678,0.8428477999987081,True,near-000,3,1,1,0.625,1.0,start,16,0
21,4,True,1.6447252999641933,800.0,50.0,33.0,15,False,2,start,0.16666666666666666,28,0.27714810002362356,0.5170565000153147,0.7942046000389382,0.4922251999960281,True,near-240,3,1,1,0.625,1.0,start,16,0
22,2,True,2.033865999954287,800.0,50.0,33.0,15,False,2,start,0.16666666666666666,12,0.2593789000529796,0.25500870001269504,0.5143876000656746,0.7085552000207826,True,near-240,4,1,1,0.625,0.5,start,16,0
23,1,True,2.4112123000086285,800.0,100.0,50.0,0,False,1,start,0.16666666666666666,12,0,0.23432390001835302,0.23432390001835302,0.9935758000356145,False,near-rnd2,4,1,0,0.625,0.5,start,16,0
24,2,True,1.6210540999891236,800.0,50.0,33.0,5,False,2,start,0.16666666666666666,12,0.2377070999937132,0.244529000017792,0.4822361000115052,1.7101564000477083,False,near-080,4,1,0,0.625,0.5,start,16,0
25,2,True,1.3182727000094019,800.0,33.0,50.0,0,False,3,up,0.16666666666666666,36,0,0.605528799991589,0.605528799991589,1.6139122999738902,True,near-rnd3,4,1,1,0.625,0.5,up,8,0
26,2,True,2.2898248999845237,800.0,50.0,33.0,0,False,2,start,0.16666666666666666,12,0,0.2433376000262797,0.2433376000262797,1.2783896999899298,False,near-000,4,1,0,0.625,0.5,start,16,0
27,2,True,1.4384542999905534,800.0,800.0,50.0,0,False,0,start,0.16666666666666666,12,0,0.2309880999964662,0.2309880999964662,0.5917534000473097,True,near-rndm,4,1,1,0.625,0.5,start,16,0
28,4,True,1.2341271999757737,800.0,50.0,33.0,10,False,2,start,0.16666666666666666,12,0.19716490001883358,0.2632529999827966,0.4604179000016302,1.3463230000343174,False,near-160,4,1,0,0.625,0.5,start,16,0
29,4,True,4.706260000006296,800.0,50.0,33.0,0,False,2,up,0.16666666666666666,20,0,0.3841870999895036,0.3841870999895036,0.9034367999993265,False,near-000,5,1,0,0.625,0.5,up,8,0
30,1,True,2.851827599981334,800.0,50.0,33.0,15,False,2,start,0.16666666666666666,0,0.24915459996555,0.036183200019877404,0.2853377999854274,0.867259600025136,False,near-240,5,1,0,0.625,0.5,start,16,0
31,3,True,1.2454810999915935,800.0,800.0,50.0,0,False,0,start,0.16666666666666666,0,0,0.04119560000253841,0.04119560000253841,1.605653100006748,False,near-rndm,5,1,0,0.625,0.5,start,16,0
32,4,True,1.3638866999535821,800.0,50.0,33.0,10,False,2,up,0.16666666666666666,20,0.1833529999712482,0.38987739995354787,0.5732303999247961,0.5706409999984317,True,near-160,5,1,1,0.625,0.5,up,8,0
33,1,True,1.5339669999666512,800.0,100.0,50.0,0,False,1,up,0.16666666666666666,20,0,0.36078200000338256,0.36078200000338256,1.2268825999926776,True,near-rnd2,5,1,1,0.625,0.5,up,8,0
34,1,True,1.3742492999881506,800.0,50.0,33.0,5,False,2,up,0.16666666666666666,20,0.09083860000828281,0.3589792999555357,0.4498178999638185,0.8598878000047989,True,near-080,5,1,1,0.625,0.5,up,8,0
35,3,True,2.0180442000273615,800.0,33.0,50.0,0,False,3,up,0.16666666666666666,36,0,0.6193574999924749,0.6193574999924749,1.0380310000036843,True,near-rnd3,5,2,2,1.25,1,up,8,0
36,3,True,1.7790350000141189,800.0,50.0,33.0,0,False,2,up,0.16666666666666666,20,0,0.38643539999611676,0.38643539999611676,1.1296439000288956,False,near-000,6,2,0,1.25,1,up,8,0
37,3,True,2.3319540999946184,800.0,800.0,50.0,0,False,0,up,0.16666666666666666,8,0,0.1757977000088431,0.1757977000088431,0.7152927999850363,True,near-rndm,6,1,1,0.625,0.5,up,8,0
38,2,True,1.2162810000008903,800.0,100.0,50.0,0,False,1,up,0.16666666666666666,20,0,0.36167130002286285,0.36167130002286285,0.5714253000332974,True,near-rnd2,6,2,2,1.25,1,up,8,0
39,3,True,1.3386140000075102,800.0,50.0,33.0,15,False,2,up,0.16666666666666666,8,0.25892779999412596,0.19431009999243543,0.4532378999865614,0.9992125000571832,False,near-240,6,1,0,0.625,0.5,up,8,0
40,1,True,1.4397359999711625,800.0,50.0,33.0,5,False,2,up,0.16666666666666666,20,0.08754929999122396,0.35653849999653175,0.4440877999877557,0.6913133000489324,True,near-080,6,2,2,1.25,1,up,8,0
41,3,True,2.111651199986227,800.0,50.0,33.0,10,False,2,up,0.16666666666666666,20,0.18891020002774894,0.3800794000271708,0.5689896000549197,0.632235299970489,True,near-160,6,2,2,1.25,1,up,8,0
42,1,True,2.564402299991343,800.0,33.0,50.0,0,False,3,up,0.16666666666666666,36,0,0.5955891999765299,0.5955891999765299,0.8899641999742016,False,near-rnd3,6,3,2,1.875,1,up,8,0
43,1,True,2.0713083999580704,800.0,50.0,33.0,0,False,2,up,0.16666666666666666,28,0,0.48720370000228286,0.48720370000228286,0.8177231999579817,False,near-000,7,1,0,0.625,1,up,8,0
44,1,True,1.7044656000216492,800.0,100.0,50.0,0,False,1,up,0.16666666666666666,20,0,0.3605278999893926,0.3605278999893926,0.5930833000456914,False,near-rnd2,7,3,2,1.875,1,up,8,0
45,2,True,1.1135450000292622,800.0,50.0,33.0,10,False,2,up,0.16666666666666666,20,0.17844270000932738,0.3703735999879427,0.5488162999972701,0.5881595999817364,True,near-160,7,3,3,1.875,1,up,8,0
46,2,True,1.163906199974008,800.0,33.0,50.0,0,False,3,up,0.16666666666666666,36,0,0.6041188999661244,0.6041188999661244,1.1228242999641225,True,near-rnd3,7,4,3,2.5,1,up,8,0
47,1,True,2.4980928999721073,800.0,50.0,33.0,15,False,2,up,0.16666666666666666,8,0.2530496999970637,0.172011399990879,0.4250610999879427,1.2490799000370316,False,near-240,7,2,0,1.25,1,up,8,0
48,1,True,2.2079827999696136,800.0,50.0,33.0,5,False,2,up,0.16666666666666666,20,0.08833520003827289,0.4793137999949977,0.5676490000332706,1.935969699989073,False,near-080,7,3,2,1.875,1,up,8,0
49,1,True,1.9949930000002496,800.0,800.0,50.0,0,False,0,up,0.16666666666666666,8,0,0.1549840000225231,0.1549840000225231,0.9605863000033423,True,near-rndm,7,2,2,1.25,1,up,8,0
50,1,True,1.946528300002683,800.0,50.0,33.0,5,False,2,up,0.16666666666666666,20,0.08803689997876063,0.366136800032109,0.45417370001086965,1.10432949999813,True,near-080,8,4,3,2.5,1,up,8,0
51,2,True,1.404284300049767,800.0,100.0,50.0,0,False,1,up,0.16666666666666666,20,0,0.3637913999846205,0.3637913999846205,0.8286296000005677,True,near-rnd2,8,4,3,2.5,1,up,8,0
52,2,True,1.5735960000311024,800.0,50.0,33.0,15,False,2,up,0.16666666666666666,16,0.25568300002487376,0.30656609998550266,0.5622491000103764,0.7711915000109002,True,near-240,8,1,1,0.625,1,up,8,0
53,2,True,1.285274899972137,800.0,33.0,50.0,0,False,3,up,0.16666666666666666,36,0,0.6011460999725387,0.6011460999725387,5.593419899989385,False,near-rnd3,8,5,3,3.125,1,up,8,0
54,2,True,1.7780198999680579,800.0,50.0,33.0,0,False,2,up,0.16666666666666666,28,0,0.4964979999931529,0.4964979999931529,0.7031979999737814,True,near-000,8,2,1,1.25,1,up,8,0
55,2,True,2.522789299953729,800.0,800.0,50.0,0,False,0,up,0.16666666666666666,8,0,0.16359559999546036,0.16359559999546036,1.3563582999631763,False,near-rndm,8,3,2,1.875,1,up,8,0
56,1,True,1.3950547999702394,800.0,50.0,33.0,10,False,2,down,0.16666666666666666,16,0.17285690002609044,0.3004312999546528,0.47328819998074323,0.8050947999581695,False,near-160,8,1,0,0.625,1,down,4,0
57,1,True,1.9383421000093222,800.0,50.0,33.0,10,False,2,down,0.16666666666666666,16,0.1744007000233978,0.29552960000000894,0.46993030002340674,0.7551531000062823,False,near-160,9,2,0,1.25,1,down,4,0
58,2,True,1.6391622999799438,800.0,33.0,50.0,0,False,3,up,0.16666666666666666,36,0,0.6067767000058666,0.6067767000058666,0.6355340000009164,True,near-rnd3,9,6,4,3.75,1,up,8,0
59,1,True,1.697981000004802,800.0,50.0,33.0,5,False,2,up,0.16666666666666666,20,0.09142979996977374,0.35813789995154366,0.4495676999213174,2.064616199990269,False,near-080,9,5,3,3.125,1,up,8,0
60,1,True,1.6060715999919921,800.0,50.0,33.0,15,False,2,up,0.16666666666666666,16,0.2508671999676153,0.2960680000251159,0.5469351999927312,0.6563015999854542,False,near-240,9,2,1,1.25,1,up,8,0
61,1,True,52.78801790002035,800.0,800.0,50.0,0,False,0,up,0.16666666666666666,8,0,0.15734179998980835,0.15734179998980835,1.2388824000372551,False,near-rndm,9,4,2,2.5,1,up,8,0
62,4,True,2.664797200006433,800.0,100.0,50.0,0,False,1,up,0.16666666666666666,20,0,0.39406229997985065,0.39406229997985065,0.6724475999944843,True,near-rnd2,9,5,4,3.125,1,up,8,0
63,3,True,2.008505400037393,800.0,50.0,33.0,0,False,2,up,0.16666666666666666,28,0,0.5111255000228994,0.5111255000228994,0.6217495999881066,True,near-000,9,3,2,1.875,1,up,8,0
64,3,True,1.3510351000004448,800.0,50.0,33.0,15,False,2,up,0.16666666666666666,16,0.2630160999833606,0.3082509000087157,0.5712669999920763,0.46298160002334043,False,near-240,10,3,1,1.875,1,up,8,0
65,2,True,10.880997399974149,800.0,50.0,33.0,0,False,2,up,0.16666666666666666,28,0,0.5022747000330128,0.5022747000330128,0.4889860000112094,True,near-000,10,4,3,2.5,1,up,8,0
66,2,True,1.5789432000019588,800.0,33.0,50.0,0,False,3,up,0.16666666666666666,36,0,0.6027400000020862,0.6027400000020862,1.6550139000173658,False,near-rnd3,10,7,4,4.375,1,up,8,0
67,2,True,1.2107903999858536,800.0,50.0,33.0,10,False,2,up,0.16666666666666666,18,0.17362680000951514,0.46981029998278245,0.6434370999922976,0.5457882000482641,True,near-160,10,1,1,0.625,1,up,2,0
68,1,True,1.3595098000369035,800.0,50.0,33.0,5,False,2,up,0.16666666666666666,20,0.08757430000696331,0.35897190001560375,0.44654620002256706,0.5400056999642402,True,near-080,10,6,4,3.75,1,up,8,0
69,1,True,2.391361700021662,800.0,800.0,50.0,0,False,0,up,0.16666666666666666,8,0,0.15511539997532964,0.15511539997532964,1.1692111000302248,False,near-rndm,10,5,2,3.125,1,up,8,0
70,3,True,1.1355091999867,800.0,100.0,50.0,0,False,1,up,0.16666666666666666,20,0,0.38470070000039414,0.38470070000039414,0.5221695000072941,True,near-rnd2,10,6,5,3.75,1,up,8,0
71,2,True,1.3313475999748334,800.0,50.0,33.0,15,False,2,up,0.16666666666666666,16,0.2626366999465972,0.30722650000825524,0.5698631999548525,0.49727739999070764,True,near-240,11,4,2,2.5,1,up,8,0
72,3,True,1.2310228999704123,800.0,33.0,50.0,0,False,3,up,0.16666666666666666,36,0,0.6182923999731429,0.6182923999731429,0.8733602999709547,False,near-rnd3,11,8,4,5.0,1,up,8,0
73,4,True,1.4226023000082932,800.0,800.0,50.0,0,False,0,up,0.16666666666666666,16,0,0.3234304999932647,0.3234304999932647,0.5147670000442304,True,near-rndm,11,1,1,0.625,1,up,8,0
74,2,True,3.2620221999823116,800.0,50.0,33.0,0,False,2,up,0.16666666666666666,28,0,0.4923312999890186,0.4923312999890186,0.9859192000003532,False,near-000,11,5,3,3.125,1,up,8,0
75,2,True,1.678202799987048,800.0,100.0,50.0,0,False,1,down,0.16666666666666666,16,0,0.3045156000298448,0.3045156000298448,1.1106948999804445,False,near-rnd2,11,1,0,0.625,1,down,4,0
76,1,True,1.3375611000228673,800.0,50.0,33.0,10,False,2,up,0.16666666666666666,18,0.1742435999913141,0.33086980000371113,0.5051133999950252,0.48137400002451614,True,near-160,11,2,2,1.25,2,up,2,0
77,4,True,1.3868710999959148,800.0,50.0,33.0,5,False,2,up,0.16666666666666666,20,0.111137600033544,0.3837100000237115,0.4948476000572555,0.4921629999880679,True,near-080,11,7,5,4.375,1,up,8,0
78,1,True,1.5484745999565348,800.0,50.0,33.0,15,False,2,up,0.16666666666666666,16,0.24971190001815557,0.30921809998108074,0.5589299999992363,0.47748820000560954,True,near-240,12,5,3,3.125,1,up,8,0
79,1,True,1.6053095000097528,800.0,100.0,50.0,0,False,1,down,0.16666666666666666,16,0,0.30501360003836453,0.30501360003836453,0.6517978999763727,True,near-rnd2,12,2,1,1.25,1,down,4,0
80,2,True,1.228263600030914,800.0,50.0,33.0,0,False,2,up,0.16666666666666666,28,0,0.49536830000579357,0.49536830000579357,0.8784573000157252,False,near-000,12,6,3,3.75,1,up,8,0
81,1,True,2.7478149000089616,800.0,800.0,50.0,0,False,0,up,0.16666666666666666,16,0,0.2871049999957904,0.2871049999957904,0.46406679996289313,True,near-rndm,12,2,2,1.25,1,up,8,0
82,1,True,1.7952186000184156,800.0,50.0,33.0,5,False,2,up,0.16666666666666666,20,0.232550100015942,0.3602561999578029,0.5928062999737449,0.616601699963212,False,near-080,12,8,5,5.0,1,up,8,0
83,4,True,1.7227079999865964,800.0,50.0,33.0,10,False,2,up,0.16666666666666666,18,0.1946161999949254,0.3743084999732673,0.5689246999681927,0.4552661000052467,True,near-160,12,3,3,1.875,2,up,2,0
84,1,True,2.377451300038956,800.0,33.0,50.0,0,False,3,up,0.16666666666666666,36,0,0.5968861999572255,0.5968861999572255,0.8974487999803387,False,near-rnd3,12,9,4,5.625,1,up,8,1
85,4,True,1.075715199986007,800.0,100.0,50.0,0,False,1,down,0.16666666666666666,16,0,0.32167909998679534,0.32167909998679534,0.5782274000230245,True,near-rnd2,13,3,2,1.875,1,down,4,0
86,3,True,1.1982560999458656,800.0,50.0,33.0,15,False,2,up,0.16666666666666666,16,0.264207600033842,0.3302776999771595,0.5944853000110015,0.6392944999970496,False,near-240,13,6,3,3.75,1,up,8,0
87,3,True,1.2695149999926798,800.0,33.0,50.0,0,False,3,up,0.16666666666666666,40,0,0.7030246999929659,0.7030246999929659,0.9473806999740191,True,near-rnd3,13,1,1,0.625,1,up,4,0
88,2,True,2.7680553999962285,800.0,50.0,33.0,5,False,2,up,0.16666666666666666,20,0.10046599997440353,0.38396649999776855,0.4844324999721721,0.5349703999818303,True,near-080,13,9,6,5.625,1,up,8,1
89,1,True,1.9415954000432976,800.0,50.0,33.0,10,False,2,up,0.16666666666666666,18,0.17404650000389665,0.33340730000054464,0.5074538000044413,0.7037724999827333,True,near-160,13,4,4,2.5,2,up,2,0
90,2,True,1.7876263000071049,800.0,50.0,33.0,0,False,2,up,0.16666666666666666,28,0,0.49631389998830855,0.49631389998830855,0.45512100000632927,True,near-000,13,7,4,4.375,1,up,8,0
91,2,True,1.1334196000243537,800.0,800.0,50.0,0,False,0,up,0.16666666666666666,16,0,0.2914067999809049,0.2914067999809049,0.8387407999834977,True,near-rndm,13,3,3,1.875,1,up,8,0
92,4,True,1.455017099971883,800.0,50.0,33.0,0,False,2,up,0.16666666666666666,28,0,0.5176394999725744,0.5176394999725744,0.512879999994766,True,near-000,14,8,5,5.0,1,up,8,0
93,3,True,1.5545362000120804,800.0,50.0,33.0,5,False,2,up,0.16666666666666666,20,0.10323439998319373,0.38174069998785853,0.48497509997105226,0.7878987999865785,True,near-080,14,10,7,6.25,1,up,8,1
94,2,True,1.1480679999804124,800.0,800.0,50.0,0,False,0,down,0.16666666666666666,12,0,0.2316024000174366,0.2316024000174366,0.658402799977921,True,near-rndm,14,1,1,0.625,1,down,4,0
95,1,True,1.3642424999852665,800.0,50.0,33.0,10,False,2,up,0.16666666666666666,18,0.17199709999840707,0.338863399985712,0.5108604999841191,1.3773011000012048,False,near-160,14,5,4,3.125,2,up,2,0
96,1,True,1.2182761000003666,800.0,100.0,50.0,0,False,1,down,0.16666666666666666,16,0,0.43941110000014305,0.43941110000014305,0.6525505000026897,False,near-rnd2,14,4,2,2.5,1,down,4,0
97,1,True,1.5651881999801844,800.0,33.0,50.0,0,False,3,up,0.16666666666666666,40,0,0.6612635999917984,0.6612635999917984,1.2050884999916889,True,near-rnd3,14,2,2,1.25,1,up,4,0
98,2,True,1.4932588000083342,800.0,50.0,33.0,15,False,2,up,0.16666666666666666,16,0.2588402000255883,0.31650130002526566,0.5753415000508539,0.40479770000092685,True,near-240,14,7,4,4.375,1,up,8,0
99,3,True,1.1693036000360735,800.0,33.0,50.0,0,False,3,up,0.16666666666666666,40,0,0.6775876000174321,0.6775876000174321,1.241673000040464,False,near-rnd3,15,3,2,1.875,1,up,4,0
100,4,True,1.5504770999541506,800.0,50.0,33.0,0,False,2,up,0.16666666666666666,28,0,0.5116343999980018,0.5116343999980018,0.6811151999863796,True,near-000,15,9,6,5.625,1,up,8,1
101,1,True,1.8216434000059962,800.0,50.0,33.0,5,False,2,up,0.16666666666666666,20,0.09215539996512234,0.3594583999947645,0.4516137999598868,1.3266984000219963,True,near-080,15,11,8,6.875,1,up,8,1
102,4,True,1.700799799989909,800.0,50.0,33.0,10,False,2,up,0.16666666666666666,18,0.1882630999898538,0.35515440005110577,0.5434175000409596,0.49365790002048016,True,near-160,15,6,5,3.75,2,up,2,0
103,4,True,1.2120170000125654,800.0,800.0,50.0,0,False,0,down,0.16666666666666666,12,0,0.24307219998445362,0.24307219998445362,0.5911440000054426,True,near-rndm,15,2,2,1.25,1,down,4,0
104,2,True,1.3387077000224963,800.0,100.0,50.0,0,False,1,down,0.16666666666666666,16,0,0.313731900008861,0.313731900008861,0.6792098999721929,True,near-rnd2,15,5,3,3.125,1,down,4,0
105,2,True,1.4953819999936968,800.0,50.0,33.0,15,False,2,up,0.16666666666666666,16,0.2517871000454761,0.3197696999995969,0.571556800045073,0.9869234999641776,False,near-240,15,8,4,5.0,1,up,8,0
106,4,True,1.3655335999792442,800.0,50.0,33.0,5,False,2,down,0.16666666666666666,18,0.1040559999528341,0.3673661999637261,0.4714221999165602,0.9833805999951437,False,near-080,16,1,0,0.625,1,down,2,0
107,3,True,1.499517599993851,800.0,100.0,50.0,0,False,1,down,0.16666666666666666,16,0,0.3200997999520041,0.3200997999520041,0.7339842999936081,False,near-rnd2,16,6,3,3.75,1,down,4,0
108,1,True,1.127811299986206,800.0,50.0,33.0,0,False,2,up,0.16666666666666666,28,0,0.49012609996134415,0.49012609996134415,0.9005452999845147,False,near-000,16,10,6,6.25,1,up,8,1
109,2,True,1.615073500026483,800.0,33.0,50.0,0,False,3,up,0.16666666666666666,40,0,0.6762572000152431,0.6762572000152431,2.298581800016109,False,near-rnd3,16,4,2,2.5,1,up,4,0
110,2,True,1.4909225999726914,800.0,50.0,33.0,15,False,2,up,0.16666666666666666,16,0.2585251000127755,0.31764909997582436,0.5761741999885999,0.6086933000478894,True,near-240,16,9,5,5.625,1,up,8,1
111,1,True,1.5810128999873996,800.0,800.0,50.0,0,False,0,down,0.16666666666666666,12,0,0.2267539000022225,0.2267539000022225,0.5929124999674968,True,near-rndm,16,3,3,1.875,1,down,4,0
112,1,True,1.0462858999962918,800.0,50.0,33.0,10,False,2,up,0.16666666666666666,18,0.16712559998268262,0.33994900004472584,0.5070746000274085,1.0861284999991767,False,near-160,16,7,5,4.375,2,up,2,0
113,2,True,1.2793079999973997,800.0,100.0,50.0,0,False,1,down,0.16666666666666666,16,0,0.31822879996616393,0.31822879996616393,0.5415575000224635,True,near-rnd2,17,7,4,4.375,1,down,4,0
114,1,True,2.2532633000519127,800.0,50.0,33.0,0,False,2,up,0.16666666666666666,28,0,0.4853828999912366,0.4853828999912366,0.48401000001467764,True,near-000,17,11,7,6.875,1,up,8,1
115,1,True,1.4538385999621823,800.0,50.0,33.0,15,False,2,up,0.16666666666666666,16,0.2538044000393711,0.29056569997919723,0.5443701000185683,0.6724166000494733,False,near-240,17,10,5,6.25,1,up,8,1
116,1,True,1.8474396000383422,800.0,50.0,33.0,10,False,2,up,0.16666666666666666,18,0.1682643000385724,0.3333447999903001,0.5016091000288725,1.2226356999599375,True,near-160,17,8,6,5.0,2,up,2,0
117,1,True,1.3481535000028089,800.0,50.0,33.0,5,False,2,down,0.16666666666666666,18,0.09337449999293312,0.3365988999721594,0.42997339996509254,0.7146318999584764,True,near-080,17,2,1,1.25,2,down,2,0
118,4,True,1.0087798000313342,800.0,800.0,50.0,0,False,0,down,0.16666666666666666,8,0,0.19565810001222417,0.19565810001222417,1.0130695999832824,False,near-rndm,17,1,0,0.625,1,down,4,0
119,2,True,1.133539300004486,800.0,33.0,50.0,0,False,3,up,0.16666666666666666,40,0,0.6765814999816939,0.6765814999816939,0.6304695000289939,False,near-rnd3,17,5,2,3.125,1,up,4,0
120,4,True,1.1897405999479815,800.0,50.0,33.0,10,False,2,up,0.16666666666666666,18,0.2514534000074491,0.3769229999743402,0.6283763999817893,0.4452665999997407,True,near-160,18,9,7,5.625,2,up,2,1
121,1,True,1.637372699973639,800.0,50.0,33.0,5,False,2,down,0.16666666666666666,18,0.09144780004862696,0.33746399998199195,0.4289118000306189,0.6199562000110745,False,near-080,18,3,1,1.875,2,down,2,0
122,2,True,1.0439585000276566,800.0,50.0,33.0,15,False,2,up,0.16666666666666666,20,0.25636220001615584,0.36799910000991076,0.6243613000260666,0.34159700002055615,True,near-240,18,1,1,0.625,1,up,4,0
123,1,True,2.1582774000125937,800.0,33.0,50.0,0,False,3,up,0.16666666666666666,44,0,0.7259100999799557,0.7259100999799557,0.5088698999607004,True,near-rnd3,18,1,1,0.625,1,up,4,0
124,3,True,1.1803645999752916,800.0,50.0,33.0,0,False,2,up,0.16666666666666666,28,0,0.512257500027772,0.512257500027772,0.5759737999760546,True,near-000,18,12,8,7.5,1,up,8,1
125,1,True,1.2577186999842525,800.0,800.0,50.0,0,False,0,down,0.16666666666666666,8,0,0.1604189000208862,0.1604189000208862,1.1819757000193931,False,near-rndm,18,2,0,1.25,1,down,4,0
126,1,True,1.3135728999623097,800.0,100.0,50.0,0,False,1,down,0.16666666666666666,16,0,0.33636690001003444,0.33636690001003444,1.050516700022854,True,near-rnd2,18,8,5,5.0,1,down,4,0
127,1,True,1.1584167999681085,800.0,50.0,33.0,10,False,2,up,0.16666666666666666,18,0.1687034000060521,0.3288890999974683,0.4975925000035204,0.8408158000092953,False,near-160,19,10,7,6.25,2,up,2,1
128,1,True,1.7490365999983624,800.0,50.0,33.0,0,False,2,up,0.16666666666666666,28,0,0.4946596999652684,0.4946596999652684,1.9668350999709219,False,near-000,19,13,8,8.125,1,up,8,1
129,2,True,1.344190299976617,800.0,33.0,50.0,0,False,3,up,0.16666666666666666,44,0,0.7344865000341088,0.7344865000341088,0.4632034999667667,True,near-rnd3,19,2,2,1.25,1,up,4,0
130,2,True,1.421418200014159,800.0,50.0,33.0,5,False,2,down,0.16666666666666666,18,0.09612709999782965,0.33873429999221116,0.4348613999900408,0.7427781000151299,False,near-080,19,4,1,2.5,2,down,2,0
131,2,True,1.4411417999654077,800.0,800.0,50.0,0,False,0,up,0.16666666666666666,10,0,0.20611930004088208,0.20611930004088208,0.8380960999638774,True,near-rndm,19,1,1,0.625,1,up,2,0
132,2,True,3.044507800019346,800.0,100.0,50.0,0,False,1,down,0.16666666666666666,16,0,0.30979570001363754,0.30979570001363754,0.7616841999697499,True,near-rnd2,19,9,6,5.625,1,down,4,1
133,3,True,1.102673799963668,800.0,50.0,33.0,15,False,2,up,0.16666666666666666,20,0.2664558000396937,0.373389300017152,0.6398451000568457,0.7507918000337668,True,near-240,19,2,2,1.25,1,up,4,0
134,3,True,2.7148051999974996,800.0,100.0,50.0,0,False,1,down,0.16666666666666666,16,0,0.31311049999203533,0.31311049999203533,0.6335920999990776,False,near-rnd2,20,10,6,6.25,1,down,4,1
135,2,True,1.576928099966608,800.0,50.0,33.0,5,False,2,down,0.16666666666666666,18,0.09479170001577586,0.34988749999320135,0.4446792000089772,0.5840021000476554,False,near-080,20,5,1,3.125,2,down,2,0
136,1,True,1.4911855000536889,800.0,50.0,33.0,0,False,2,up,0.16666666666666666,28,0,0.5698041999712586,0.5698041999712586,0.4292015999672003,True,near-000,20,14,9,8.75,1,up,8,1
137,2,True,1.40458769997349,800.0,50.0,33.0,10,False,2,up,0.16666666666666666,18,0.17699920001905411,0.3490417000139132,0.5260409000329673,0.5182705999468453,True,near-160,20,11,8,6.875,2,up,2,1
138,4,True,1.866597299987916,800.0,800.0,50.0,0,False,0,up,0.16666666666666666,10,0,0.22143299999879673,0.22143299999879673,0.5913139000185765,True,near-rndm,20,2,2,1.25,2,up,2,0
139,2,True,1.531595100008417,800.0,50.0,33.0,15,False,2,up,0.16666666666666666,20,0.25246420002076775,0.37797589995898306,0.6304400999797508,0.607400199980475,True,near-240,20,3,3,1.875,1,up,4,0
140,4,True,1.3894800000125542,800.0,33.0,50.0,0,False,3,up,0.16666666666666666,44,0,0.7642081999802031,0.7642081999802031,1.157861599989701,True,near-rnd3,20,3,3,1.875,1,up,4,0
141,1,True,1.3310470000142232,800.0,800.0,50.0,0,False,0,up,0.16666666666666666,10,0,0.19194429996423423,0.19194429996423423,0.6961178999627009,True,near-rndm,21,3,3,1.875,2,up,2,0
142,2,True,1.0956507000373676,800.0,100.0,50.0,0,False,1,down,0.16666666666666666,16,0,0.30948960001114756,0.30948960001114756,0.9444186000037007,False,near-rnd2,21,11,6,6.875,1,down,4,1
143,1,True,1.0758608999894932,800.0,50.0,33.0,5,False,2,up,0.16666666666666666,19,0.09201439999742433,0.34436360001564026,0.4363780000130646,0.8659933999879286,False,near-080,21,1,0,0.625,2,up,1,0
144,2,True,1.7363255000091158,800.0,33.0,50.0,0,False,3,down,0.16666666666666666,42,0,0.7056601000367664,0.7056601000367664,0.9969680000212975,True,near-rnd3,21,1,1,0.625,1,down,2,0
145,1,True,1.544059899984859,800.0,50.0,33.0,0,False,2,up,0.16666666666666666,28,0,0.48386000003665686,0.48386000003665686,0.6835537999868393,False,near-000,21,15,9,9.375,1,up,8,1
146,3,True,1.2883102999767289,800.0,50.0,33.0,10,False,2,up,0.16666666666666666,18,0.18829700001515448,0.34714159998111427,0.5354385999962687,0.7633700000005774,True,near-160,21,12,9,7.5,2,up,2,1
147,3,True,1.0676787999691442,800.0,50.0,33.0,15,False,2,down,0.16666666666666666,18,0.2699552999692969,0.38080970000009984,0.6507649999693967,0.4628884000121616,True,near-240,21,1,1,0.625,1,down,2,0
148,2,True,1.2711264999816194,800.0,50.0,33.0,15,False,2,down,0.16666666666666666,18,0.25572910002665594,0.33609689999138936,0.5918260000180453,0.8747838999843225,False,near-240,22,2,1,1.25,2,down,2,0
149,3,True,1.1148546999902464,800.0,100.0,50.0,0,False,1,down,0.16666666666666666,16,0,0.3212562999688089,0.3212562999688089,0.5227796999970451,True,near-rnd2,22,12,7,7.5,1,down,4,1
150,1,True,1.5382321999641135,800.0,33.0,50.0,0,False,3,down,0.16666666666666666,42,0,0.6954446999588981,0.6954446999588981,0.8107066999655217,True,near-rnd3,22,2,2,1.25,2,down,2,0
151,1,True,2.750159999995958,800.0,50.0,33.0,5,False,2,up,0.16666666666666666,19,0.08753060002345592,0.35438200004864484,0.44191260007210076,0.597594199993182,True,near-080,22,2,1,1.25,2,up,1,0
152,2,True,1.4245350999990478,800.0,800.0,50.0,0,False,0,up,0.16666666666666666,10,0,0.20020279998425394,0.20020279998425394,0.6024298999691382,True,near-rndm,22,4,4,2.5,2,up,2,0
153,1,True,1.7331727999844588,800.0,50.0,33.0,0,False,2,up,0.16666666666666666,28,0,0.48812399996677414,0.48812399996677414,0.9024442999507301,False,near-000,22,16,9,10.0,1,up,8,1
154,1,True,1.3973512999946252,800.0,50.0,33.0,10,False,2,up,0.16666666666666666,18,0.1696276000002399,0.3271690999972634,0.4967966999975033,0.5028243000269867,True,near-160,22,13,10,8.125,2,up,2,1
155,3,True,3.798395099991467,800.0,50.0,33.0,10,False,2,up,0.16666666666666666,18,0.1865887999883853,0.3597563999937847,0.54634519998217,0.5073465000023134,True,near-160,23,14,11,8.75,2,up,2,1
156,1,True,1.704100799979642,800.0,50.0,33.0,0,False,2,up,0.16666666666666666,28,0,0.4910984000307508,0.4910984000307508,0.51714670000365,True,near-000,23,17,10,10.625,1,up,8,2
157,1,True,1.4251306999940425,800.0,50.0,33.0,15,False,2,down,0.16666666666666666,18,0.2515353000489995,0.32835950003936887,0.5798948000883684,0.6423333999700844,True,near-240,23,3,2,1.875,2,down,2,0
158,2,True,1.1011368000181392,800.0,800.0,50.0,0,False,0,up,0.16666666666666666,10,0,0.20201890001771972,0.20201890001771972,0.5956841000006534,True,near-rndm,23,5,5,3.125,2,up,2,0
159,2,True,1.0052588999969885,800.0,50.0,33.0,5,False,2,up,0.16666666666666666,19,0.09598869999172166,0.35097299999324605,0.4469616999849677,0.5761930999578908,True,near-080,23,3,2,1.875,2,up,1,0
160,2,True,1.1391629000427201,800.0,100.0,50.0,0,False,1,down,0.16666666666666666,16,0,0.3084153999807313,0.3084153999807313,0.6967048000078648,False,near-rnd2,23,13,7,8.125,1,down,4,1
161,2,True,25.912835199967958,800.0,33.0,50.0,0,False,3,down,0.16666666666666666,42,0,0.7032033000141382,0.7032033000141382,0.6398081999504939,False,near-rnd3,23,3,2,1.875,2,down,2,0
162,2,True,1.1442237999872304,800.0,50.0,33.0,5,False,2,up,0.16666666666666666,19,0.09125669999048114,0.3541861000121571,0.44544280000263825,0.5384650999912992,False,near-080,24,4,2,2.5,2,up,1,0
163,2,True,1.5073773000040092,800.0,800.0,50.0,0,False,0,up,0.16666666666666666,10,0,0.20492720004403964,0.20492720004403964,0.7081129999714904,True,near-rndm,24,6,6,3.75,2,up,2,0
164,2,True,2.013592900009826,800.0,50.0,33.0,15,False,2,down,0.16666666666666666,18,0.2501802999759093,0.33771149994572625,0.5878917999216355,0.44194160000188276,True,near-240,24,4,3,2.5,2,down,2,0
165,3,True,1.133023599977605,800.0,33.0,50.0,0,False,3,down,0.16666666666666666,42,0,0.7087339999852702,0.7087339999852702,0.7670004999963567,True,near-rnd3,24,4,3,2.5,2,down,2,0
166,1,True,1.6141612000064924,800.0,100.0,50.0,0,False,1,up,0.16666666666666666,17,0,0.30820909998146817,0.30820909998146817,0.5980260000214912,True,near-rnd2,24,1,1,0.625,1,up,1,0
167,1,True,1.2399033999536186,800.0,50.0,33.0,0,False,2,up,0.16666666666666666,28,0,0.48687590000918135,0.48687590000918135,0.5348969000042416,True,near-000,24,18,11,11.25,1,up,8,2
168,3,True,1.8231379000353627,800.0,50.0,33.0,10,False,2,down,0.16666666666666666,17,0.1848327000043355,0.3412260999903083,0.5260587999946438,0.6184495000052266,True,near-160,24,1,1,0.625,2,down,1,0
169,2,True,1.581558000005316,800.0,50.0,33.0,15,False,2,down,0.16666666666666666,18,0.2541975000058301,0.34833040001103655,0.6025279000168666,0.7142370999790728,True,near-240,25,5,4,3.125,2,down,2,0
170,1,True,1.3728874999796972,800.0,50.0,33.0,0,False,2,up,0.16666666666666666,28,0,0.486587299965322,0.486587299965322,0.6757328999810852,True,near-000,25,19,12,11.875,1,up,8,2
171,2,True,1.127962100028526,800.0,50.0,33.0,5,False,2,up,0.16666666666666666,19,0.09995889995479956,0.3503216999815777,0.45028059993637726,1.636162900016643,False,near-080,25,5,2,3.125,2,up,1,0
172,4,True,1.1611720999935642,800.0,33.0,50.0,0,False,3,down,0.16666666666666666,42,0,0.7288608999806456,0.7288608999806456,0.4719393000123091,False,near-rnd3,25,5,3,3.125,2,down,2,0
173,4,True,1.1814556999597698,800.0,800.0,50.0,0,False,0,down,0.16666666666666666,9,0,0.21175509999739006,0.21175509999739006,0.6526985999662429,True,near-rndm,25,1,1,0.625,2,down,1,0
174,3,True,1.87478579999879,800.0,50.0,33.0,10,False,2,down,0.16666666666666666,17,0.17930650000926107,0.34510500001488253,0.5244115000241436,0.9584270999766886,True,near-160,25,2,2,1.25,3,down,1,0
175,1,True,1.3854540000320412,800.0,100.0,50.0,0,False,1,up,0.16666666666666666,17,0,0.43382979999296367,0.43382979999296367,1.0401866000029258,False,near-rnd2,25,2,1,1.25,2,up,1,0
176,1,True,1.221772700024303,800.0,800.0,50.0,0,False,0,down,0.16666666666666666,9,0,0.17024700000183657,0.17024700000183657,0.701785999990534,True,near-rndm,26,2,2,1.25,2,down,1,0
177,2,True,1.0013524999958463,800.0,50.0,33.0,15,False,2,down,0.16666666666666666,18,0.2631093999953009,0.33600700000533834,0.5991164000006393,0.8183045000187121,True,near-240,26,6,5,3.75,2,down,2,0
178,3,True,1.1223470999975689,800.0,50.0,33.0,0,False,2,up,0.16666666666666666,28,0,0.4997469000518322,0.4997469000518322,0.5240271000075154,True,near-000,26,20,13,12.5,1,up,8,2
179,1,True,1.6499727999907918,800.0,50.0,33.0,10,False,2,down,0.16666666666666666,17,0.17048760002944618,0.31629619997693226,0.48678380000637844,1.1021273999940604,False,near-160,26,3,2,1.875,3,down,1,0
180,3,True,1.120800499978941,800.0,100.0,50.0,0,False,1,up,0.16666666666666666,17,0,0.32467850000830367,0.32467850000830367,0.5119913999806158,True,near-rnd2,26,3,2,1.875,2,up,1,0
181,2,True,1.0092599000199698,800.0,50.0,33.0,5,False,2,up,0.16666666666666666,19,0.09091309999348596,0.3620801999932155,0.45299329998670146,0.8085246999980882,True,near-080,26,6,3,3.75,2,up,1,0
182,1,True,1.0196316000074148,800.0,33.0,50.0,0,False,3,down,0.16666666666666666,42,0,0.6942394999787211,0.6942394999787211,0.7307731000473723,False,near-rnd3,26,6,3,3.75,2,down,2,0
183,3,True,2.612255299987737,800.0,50.0,33.0,15,False,2,down,0.16666666666666666,18,0.2703881000052206,0.34612850000848994,0.6165166000137106,0.5209200999815948,True,near-240,27,7,6,4.375,2,down,2,0
184,1,True,1.7235569000476971,800.0,50.0,33.0,10,False,2,down,0.16666666666666666,17,0.255162300018128,0.3239725999883376,0.5791349000064656,0.7188960000057705,False,near-160,27,4,2,2.5,3,down,1,0
185,3,True,1.2802688000374474,800.0,50.0,33.0,5,False,2,up,0.16666666666666666,19,0.10792890004813671,0.3748966999701224,0.48282560001825914,0.6426186999888159,False,near-080,27,7,3,4.375,2,up,1,0
186,1,True,1.151787900016643,800.0,800.0,50.0,0,False,0,down,0.16666666666666666,9,0,0.17492820002371445,0.17492820002371445,0.6413931000279263,True,near-rndm,27,3,3,1.875,2,down,1,0
187,1,True,1.2538444999954663,800.0,50.0,33.0,0,False,2,up,0.16666666666666666,28,0,0.569567599974107,0.569567599974107,0.41595049999887124,True,near-000,27,21,14,13.125,1,up,8,2
188,1,True,1.5370589999947697,800.0,33.0,50.0,0,False,3,down,0.16666666666666666,42,0,0.6948248000117019,0.6948248000117019,0.9847389000351541,False,near-rnd3,27,7,3,4.375,2,down,2,0
189,2,True,1.0648384000523947,800.0,100.0,50.0,0,False,1,up,0.16666666666666666,17,0,0.32381480000913143,0.32381480000913143,0.5511110999505036,True,near-rnd2,27,4,3,2.5,2,up,1,0
190,1,True,1.9874995999853127,800.0,50.0,33.0,10,False,2,down,0.16666666666666666,17,0.17487299995264038,0.4527634999831207,0.6276364999357611,0.49819720000959933,True,near-160,28,5,3,3.125,3,down,1,0
191,2,True,1.0819770999951288,800.0,800.0,50.0,0,False,0,down,0.16666666666666666,9,0,0.1876905999961309,0.1876905999961309,0.9183271999936551,True,near-rndm,28,4,4,2.5,2,down,1,0
192,4,True,1.2818017000099644,800.0,33.0,50.0,0,False,3,down,0.16666666666666666,42,0,0.8679280999931507,0.8679280999931507,0.45602570002665743,False,near-rnd3,28,8,3,5.0,2,down,2,0
193,3,True,1.0228667000192218,800.0,50.0,33.0,5,False,2,up,0.16666666666666666,19,0.10466240003006533,0.36881880002329126,0.4734812000533566,0.6467988000367768,True,near-080,28,8,4,5.0,2,up,1,0
194,1,True,1.1627271999605,800.0,50.0,33.0,15,False,2,down,0.16666666666666666,18,0.24813810002524406,0.33292610000353307,0.5810642000287771,0.6909104000078514,False,near-240,28,8,6,5.0,2,down,2,0
195,3,True,1.7769438999821432,800.0,100.0,50.0,0,False,1,up,0.16666666666666666,17,0,0.3419749999884516,0.3419749999884516,0.7472138000302948,False,near-rnd2,28,5,3,3.125,2,up,1,0
196,1,True,1.1298084000009112,800.0,50.0,33.0,0,False,2,up,0.16666666666666666,28,0,0.4867606000043452,0.4867606000043452,0.7594929999904707,True,near-000,28,22,15,13.75,1,up,8,2
197,1,True,1.30559959996026,800.0,50.0,33.0,10,False,2,down,0.16666666666666666,17,0.17008830001577735,0.3208967000246048,0.49098500004038215,0.500187800033018,False,near-160,29,6,3,3.75,3,down,1,0
198,2,True,1.1361098000197671,800.0,800.0,50.0,0,False,0,down,0.16666666666666666,9,0,0.18487489997642115,0.18487489997642115,0.5326274000108242,True,near-rndm,29,5,5,3.125,2,down,1,0
199,1,True,1.1174564000102691,800.0,50.0,33.0,5,False,2,up,0.16666666666666666,19,0.08803310000803322,0.34464319999096915,0.43267629999900237,0.6953633999801241,True,near-080,29,9,5,5.625,2,up,1,1
200,1,True,1.4526145000127144,800.0,50.0,33.0,15,False,2,down,0.16666666666666666,18,0.2538184000295587,0.33735749998595566,0.5911759000155143,0.6261653000256047,False,near-240,29,9,6,5.625,2,down,2,1
201,3,True,1.0111265000305139,800.0,33.0,50.0,0,False,3,down,0.16666666666666666,42,0,0.710745099990163,0.710745099990163,0.9712217000196688,True,near-rnd3,29,9,4,5.625,2,down,2,1
202,4,True,0.994745200034231,800.0,50.0,33.0,0,False,2,down,0.16666666666666666,27,0,0.4933346000034362,0.4933346000034362,0.3503148999880068,True,near-000,29,1,1,0.625,1,down,1,0
203,1,True,1.270034300046973,800.0,100.0,50.0,0,False,1,up,0.16666666666666666,17,0,0.31626310001593083,0.31626310001593083,0.4968872000463307,True,near-rnd2,29,6,4,3.75,2,up,1,0
204,2,True,1.0445466000237502,800.0,50.0,33.0,10,False,2,down,0.16666666666666666,17,0.17522380000445992,0.3200259999721311,0.495249799976591,0.5888478000415489,True,near-160,30,7,4,4.375,3,down,1,0
205,1,True,1.2564369000028819,800.0,100.0,50.0,0,False,1,up,0.16666666666666666,17,0,0.31957880000118166,0.31957880000118166,1.0901343000005,True,near-rnd2,30,7,5,4.375,2,up,1,0
206,2,True,1.107619300018996,800.0,50.0,33.0,5,False,2,up,0.16666666666666666,19,0.20438589999685064,0.35697770002298057,0.5613636000198312,0.5962386000319384,True,near-080,30,10,6,6.25,2,up,1,1
207,1,True,1.2533453000360169,800.0,33.0,50.0,0,False,3,down,0.16666666666666666,42,0,0.6900381000014022,0.6900381000014022,1.0132205999689177,True,near-rnd3,30,10,5,6.25,2,down,2,1
208,1,True,2.4255050999927334,800.0,50.0,33.0,15,False,2,down,0.16666666666666666,18,0.25044639996485785,0.3269495000131428,0.5773958999780007,0.7979781000176445,False,near-240,30,10,6,6.25,2,down,2,1
209,2,True,1.0560763000394218,800.0,800.0,50.0,0,False,0,down,0.16666666666666666,9,0,0.18299770000157878,0.18299770000157878,0.5505455000093207,True,near-rndm,30,6,6,3.75,2,down,1,0
210,1,True,1.872721099993214,800.0,50.0,33.0,0,False,2,down,0.16666666666666666,27,0,0.46658960002241656,0.46658960002241656,0.9349952000193298,False,near-000,30,2,1,1.25,2,down,1,0
211,3,True,1.3636098999995738,800.0,50.0,33.0,15,False,2,down,0.16666666666666666,18,0.26899109996156767,0.33944179996615276,0.6084328999277204,0.43508940003812313,False,near-240,31,11,6,6.875,2,down,2,1
212,2,True,1.6055830999976024,800.0,800.0,50.0,0,False,0,down,0.16666666666666666,8,0,0.16070269996998832,0.16070269996998832,0.5670706999953836,True,near-rndm,31,1,1,0.625,2,down,1,0
213,1,True,1.449625599954743,800.0,33.0,50.0,0,False,3,down,0.16666666666666666,42,0,0.694424000044819,0.694424000044819,0.9467553999857046,False,near-rnd3,31,11,5,6.875,2,down,2,1
214,2,True,1.0271296999999322,800.0,50.0,33.0,5,False,2,up,0.16666666666666666,19,0.10281640000175685,0.36553440004354343,0.4683508000453003,0.5907895999844186,True,near-080,31,11,7,6.875,2,up,1,1
215,1,True,1.3758598000276834,800.0,50.0,33.0,10,False,2,down,0.16666666666666666,17,0.1671826000092551,0.31572350003989413,0.48290610004914925,0.7838278000126593,True,near-160,31,8,5,5.0,3,down,1,0
216,2,True,1.7345089000300504,800.0,50.0,33.0,0,False,2,down,0.16666666666666666,27,0,0.48050920001696795,0.48050920001696795,0.4419026999967173,True,near-000,31,3,2,1.875,2,down,1,0
217,2,True,1.2453202999895439,800.0,100.0,50.0,0,False,1,up,0.16666666666666666,17,0,0.3307587999734096,0.3307587999734096,0.5402728000190109,True,near-rnd2,31,8,6,5.0,2,up,1,0
218,2,True,1.4391481999773532,800.0,100.0,50.0,0,False,1,up,0.16666666666666666,17,0,0.3204943999880925,0.3204943999880925,0.6670419999863952,False,near-rnd2,32,9,6,5.625,2,up,1,1
219,4,True,1.0223014999646693,800.0,33.0,50.0,0,False,3,down,0.16666666666666666,42,0,0.7197692999616265,0.7197692999616265,0.7839140999712981,True,near-rnd3,32,12,6,7.5,2,down,2,1
220,1,True,1.3786531999940053,800.0,800.0,50.0,0,False,0,down,0.16666666666666666,8,0,0.15953839995199814,0.15953839995199814,0.7039640999864787,True,near-rndm,32,2,2,1.25,2,down,1,0
221,2,True,1.707290299993474,800.0,50.0,33.0,5,False,2,up,0.16666666666666666,19,0.09371139999711886,0.3670939999865368,0.46080539998365566,0.6182295000180602,False,near-080,32,12,7,7.5,2,up,1,1
222,1,True,2.4656549000064842,800.0,50.0,33.0,0,False,2,down,0.16666666666666666,27,0,0.4673657999956049,0.4673657999956049,0.5705785000463948,True,near-000,32,4,3,2.5,2,down,1,0
223,2,True,1.5602259999723174,800.0,50.0,33.0,15,False,2,down,0.16666666666666666,18,0.26109640003414825,0.35398820001864806,0.6150846000527963,0.5869489000178874,True,near-240,32,12,7,7.5,2,down,2,1
224,1,True,1.3994067999883555,800.0,50.0,33.0,0,False,2,down,0.16666666666666666,27,0,0.6182280000066385,0.6182280000066385,0.2996460000285879,False,near-000,33,5,3,3.125,2,down,1,0
225,1,True,1.446731100033503,800.0,800.0,50.0,0,False,0,down,0.16666666666666666,8,0,0.16018260002601892,0.16018260002601892,0.6907248999923468,True,near-rndm,33,3,3,1.875,2,down,1,0
226,4,True,1.1069874999811873,800.0,100.0,50.0,0,False,1,up,0.16666666666666666,17,0,0.33915729995351285,0.33915729995351285,0.45654559996910393,True,near-rnd2,33,10,7,6.25,2,up,1,1
227,4,True,1.2515159000176936,800.0,50.0,33.0,15,False,2,down,0.16666666666666666,18,0.27443260001018643,0.35269440000411123,0.6271270000142977,0.7216078999917954,True,near-240,33,13,8,8.125,2,down,2,1
228,1,True,1.284185600001365,800.0,33.0,50.0,0,False,3,down,0.16666666666666666,42,0,0.6941470999736339,0.6941470999736339,0.380729699973017,False,near-rnd3,33,13,6,8.125,2,down,2,1
229,1,True,1.9329298000084236,800.0,50.0,33.0,5,False,2,up,0.16666666666666666,19,0.09147580002900213,0.35128800000529736,0.4427638000342995,0.7791650999570265,False,near-080,33,13,7,8.125,2,up,1,1
230,4,True,1.3463827000232413,800.0,100.0,50.0,0,False,1,up,0.16666666666666666,17,0,0.3379025000031106,0.3379025000031106,0.5354487000149675,True,near-rnd2,34,11,8,6.875,2,up,1,1
231,2,True,1.163803800009191,800.0,50.0,33.0,5,False,2,up,0.16666666666666666,19,0.09873719996539876,0.3534870999865234,0.45222429995192215,0.7842078999965452,False,near-080,34,14,7,8.75,2,up,1,1
232,2,True,5.0048552000080235,800.0,50.0,33.0,0,False,2,down,0.16666666666666666,27,0,0.4747970000025816,0.4747970000025816,0.4805183000280522,True,near-000,34,6,4,3.75,2,down,1,0
233,1,True,1.4003113000071608,800.0,50.0,33.0,15,False,2,down,0.16666666666666666,18,0.25310349999926984,0.32770159997744486,0.5808050999767147,0.4052907999721356,False,near-240,34,14,8,8.75,2,down,2,1
234,3,True,1.4577788000460714,800.0,33.0,50.0,0,False,3,up,0.16666666666666666,43,0,0.7241745999781415,0.7241745999781415,0.6439539000275545,False,near-rnd3,34,1,0,0.625,2,up,1,0
235,2,True,1.2588535000104457,800.0,800.0,50.0,0,False,0,down,0.16666666666666666,8,0,0.16490180004620925,0.16490180004620925,0.6441216999664903,True,near-rndm,34,4,4,2.5,2,down,1,0
236,1,True,2.6974495999747887,800.0,50.0,33.0,15,False,2,down,0.16666666666666666,18,0.2489783000200987,0.33661930001107976,0.5855976000311784,0.5449432000168599,True,near-240,35,15,9,9.375,2,down,2,1
237,1,True,2.5600077000563033,800.0,33.0,50.0,0,False,3,up,0.16666666666666666,43,0,0.7112255999818444,0.7112255999818444,1.4073088999721222,False,near-rnd3,35,2,0,1.25,3,up,1,0
238,1,True,2.627266999974381,800.0,100.0,50.0,0,False,1,up,0.16666666666666666,17,0,0.3147352999658324,0.3147352999658324,0.7533046000171453,True,near-rnd2,35,12,9,7.5,2,up,1,1
239,3,True,1.312672499974724,800.0,800.0,50.0,0,False,0,down,0.16666666666666666,8,0,0.17874340002890676,0.17874340002890676,0.6477945999940857,True,near-rndm,35,5,5,3.125,2,down,1,0
240,1,True,1.0881844999967143,800.0,50.0,33.0,0,False,2,down,0.16666666666666666,27,0,0.46842829999513924,0.46842829999513924,0.8927495999960229,True,near-000,35,7,5,4.375,2,down,1,0
241,1,True,1.1048276999499649,800.0,50.0,33.0,5,False,2,up,0.16666666666666666,19,0.0884453000035137,0.35251839994452894,0.44096369994804263,0.7930544000118971,False,near-080,35,15,7,9.375,2,up,1,1
242,1,True,1.576365499990061,800.0,50.0,33.0,0,False,2,down,0.16666666666666666,27,0,0.4740377999842167,0.4740377999842167,0.5910277999937534,False,near-000,36,8,5,5.0,2,down,1,0
243,3,True,1.132348099956289,800.0,800.0,50.0,0,False,0,down,0.16666666666666666,8,0,0.18045049998909235,0.18045049998909235,0.5434570000506938,True,near-rndm,36,6,6,3.75,2,down,1,0
244,4,True,1.1852470999583602,800.0,100.0,50.0,0,False,1,up,0.16666666666666666,17,0,0.3444022999610752,0.3444022999610752,0.5825780999730341,True,near-rnd2,36,13,10,8.125,2,up,1,1
245,2,True,1.1952552000293508,800.0,33.0,50.0,0,False,3,up,0.16666666666666666,43,0,0.7215876000118442,0.7215876000118442,0.6818189999903552,False,near-rnd3,36,3,0,1.875,3,up,1,0
246,1,True,1.4109076999593526,800.0,50.0,33.0,5,False,2,up,0.16666666666666666,20,0.08828809997066855,0.36001139995642006,0.4482994999270886,0.7415017999592237,True,near-080,36,1,1,0.625,2,up,1,0
247,3,True,1.2791831999784335,800.0,50.0,33.0,15,False,2,down,0.16666666666666666,18,0.26962859998457134,0.3481141999945976,0.6177427999791689,0.477994300017599,True,near-240,36,16,10,10.0,2,down,2,1
248,1,True,1.3991626999923028,800.0,800.0,50.0,0,False,0,down,0.16666666666666666,7,0,0.14296079997438937,0.14296079997438937,0.6491368000279181,True,near-rndm,37,1,1,0.625,2,down,1,0
249,4,True,3.6562766999704763,800.0,50.0,33.0,0,False,2,down,0.16666666666666666,27,0,0.49927010003011674,0.49927010003011674,0.4537298000068404,True,near-000,37,9,6,5.625,2,down,1,1
250,1,True,1.2819679999956861,800.0,33.0,50.0,0,False,3,up,0.16666666666666666,43,0,0.706932200002484,0.706932200002484,0.29647850000765175,True,near-rnd3,37,4,1,2.5,3,up,1,0
251,1,True,1.5032315999851562,800.0,50.0,33.0,5,False,2,up,0.16666666666666666,20,0.08972250000806525,0.3722072000382468,0.46192970004631206,0.5041915000183508,True,near-080,37,2,2,1.25,3,up,1,0
252,2,True,1.1685971000115387,800.0,50.0,33.0,15,False,2,down,0.16666666666666666,18,0.25262679997831583,0.33296379999956116,0.585590599977877,0.46545130002778023,True,near-240,37,17,11,10.625,2,down,2,2
253,2,True,1.6258439000230283,800.0,100.0,50.0,0,False,1,up,0.16666666666666666,17,0,0.32673229998908937,0.32673229998908937,0.5557047999463975,True,near-rnd2,37,14,11,8.75,2,up,1,1
254,2,True,1.5314336000010371,800.0,50.0,33.0,0,False,2,down,0.16666666666666666,27,0,0.48537090001627803,0.48537090001627803,0.65429730003234,True,near-000,38,10,7,6.25,2,down,1,1
255,2,True,1.1178208999917842,800.0,50.0,33.0,15,False,2,down,0.16666666666666666,18,0.2543961000046693,0.3328847999800928,0.5872808999847621,0.5137083000154234,False,near-240,38,18,11,11.25,2,down,2,2
256,3,True,1.2031502000172623,800.0,800.0,50.0,0,False,0,down,0.16666666666666666,7,0,0.157254199963063,0.157254199963063,0.5710969000356272,True,near-rndm,38,2,2,1.25,2,down,1,0
257,2,True,1.3287442000000738,800.0,50.0,33.0,5,False,2,up,0.16666666666666666,20,0.09550380002474412,0.3758133000228554,0.4713171000475995,0.8009561999933794,False,near-080,38,3,2,1.875,3,up,1,0
258,1,True,1.2689691000268795,800.0,33.0,50.0,0,False,3,up,0.16666666666666666,43,0,0.7071634999592789,0.7071634999592789,1.0814229999668896,True,near-rnd3,38,5,2,3.125,3,up,1,0
259,1,True,2.5262102999840863,800.0,50.0,33.0,0,False,2,down,0.16666666666666666,27,0,0.46564679994480684,0.46564679994480684,1.185030900000129,False,near-000,39,11,7,6.875,2,down,1,1
260,2,True,1.3551297999802046,800.0,50.0,33.0,15,False,2,down,0.16666666666666666,18,0.25991140003316104,0.3436849999707192,0.6035964000038803,0.8327370000188239,True,near-240,39,19,12,11.875,2,down,2,2
261,3,True,1.164505900000222,800.0,33.0,50.0,0,False,3,up,0.16666666666666666,43,0,0.84588649997022,0.84588649997022,1.1901949999737553,False,near-rnd3,39,6,2,3.75,3,up,1,0
262,2,True,1.2984122000052594,800.0,800.0,50.0,0,False,0,down,0.16666666666666666,7,0,0.15029159997357056,0.15029159997357056,0.8113499999744818,True,near-rndm,39,3,3,1.875,2,down,1,0
263,1,True,0.9283585000084713,800.0,50.0,33.0,5,False,2,up,0.16666666666666666,20,0.09381589997792616,0.37016240000957623,0.4639782999875024,0.633809500024654,False,near-080,39,4,2,2.5,3,up,1,0
264,3,True,0.896026200032793,800.0,33.0,50.0,0,False,3,up,0.16666666666666666,43,0,0.7371955999988131,0.7371955999988131,0.7595976999728009,False,near-rnd3,40,7,2,4.375,3,up,1,0
265,2,True,1.1332290000282228,800.0,800.0,50.0,0,False,0,down,0.16666666666666666,7,0,0.15405159996589646,0.15405159996589646,0.6353654999984428,True,near-rndm,40,4,4,2.5,2,down,1,0
266,1,True,1.1746067000203766,800.0,50.0,33.0,0,False,2,down,0.16666666666666666,27,0,0.46836749999783933,0.46836749999783933,0.7331016000243835,False,near-000,40,12,7,7.5,2,down,1,1
267,2,True,1.6885886999662034,800.0,50.0,33.0,15,False,2,down,0.16666666666666666,18,0.2577028999803588,0.33309560001362115,0.5907984999939799,0.49955760000739247,True,near-240,40,20,13,12.5,2,down,2,2
268,2,True,1.1054156000027433,800.0,50.0,33.0,5,False,2,up,0.16666666666666666,20,0.10333359998185188,0.37624059995869175,0.4795741999405436,0.4981880999985151,True,near-080,40,5,3,3.125,3,up,1,0
269,3,True,1.127768800011836,800.0,33.0,50.0,0,False,3,up,0.16666666666666666,43,0,0.7278626000043005,0.7278626000043005,1.249576399975922,True,near-rnd3,41,8,3,5.0,3,up,1,0
270,2,True,1.0846275000367314,800.0,50.0,33.0,5,False,2,up,0.16666666666666666,20,0.09904300002381206,0.373495300009381,0.4725383000331931,0.6529612999875098,True,near-080,41,6,4,3.75,3,up,1,0
271,2,True,2.15879140002653,800.0,50.0,33.0,0,False,2,down,0.16666666666666666,27,0,0.4750773000414483,0.4750773000414483,0.4870293000130914,True,near-000,41,13,8,8.125,2,down,1,1
272,2,True,1.112714099988807,800.0,50.0,33.0,15,False,2,down,0.16666666666666666,18,0.2571196000208147,0.3395019000163302,0.5966215000371449,0.6111345000099391,True,near-240,41,21,14,13.125,2,down,2,2
273,1,True,1.4013443000148982,800.0,800.0,50.0,0,False,0,down,0.16666666666666666,7,0,0.14206069998908788,0.14206069998908788,0.779052599973511,True,near-rndm,41,5,5,3.125,2,down,1,0
274,3,True,1.039312399982009,800.0,800.0,50.0,0,False,0,down,0.16666666666666666,7,0,0.16633829998318106,0.16633829998318106,0.6594884000369348,True,near-rndm,42,6,6,3.75,2,down,1,0
275,1,True,1.3529620999470353,800.0,50.0,33.0,0,False,2,down,0.16666666666666666,27,0,0.4756209999904968,0.4756209999904968,0.5805309000425041,True,near-000,42,14,9,8.75,2,down,1,1
276,2,True,1.0173249999643303,800.0,50.0,33.0,5,False,2,up,0.16666666666666666,20,0.09501129999989644,0.36308520002057776,0.4580965000204742,0.5602451000013389,True,near-080,42,7,5,4.375,3,up,1,0
277,3,True,1.5520624999771826,800.0,50.0,33.0,15,False,2,down,0.16666666666666666,18,0.2619385999860242,0.3452609999803826,0.6071995999664068,0.400320099957753,True,near-240,42,22,15,13.75,2,down,2,2
278,2,True,1.1915578999905847,800.0,800.0,50.0,0,False,0,down,0.16666666666666666,5,0,0.15485330001683906,0.15485330001683906,0.6648890000069514,True,near-rndm,43,1,1,0.625,2,down,2,0
279,1,True,1.251585999969393,800.0,50.0,33.0,5,False,2,up,0.16666666666666666,20,0.0902809000108391,0.36174130003200844,0.45202220004284754,0.6513739000074565,False,near-080,43,8,5,5.0,3,up,1,0
280,1,True,2.642761800030712,800.0,50.0,33.0,15,False,2,down,0.16666666666666666,18,0.2510212999768555,0.3297861000173725,0.580807399994228,0.4389242000179365,True,near-240,43,23,16,14.375,2,down,2,2
281,4,True,1.1840114999795333,800.0,50.0,33.0,0,False,2,down,0.16666666666666666,27,0,0.4905957999872044,0.4905957999872044,0.5032967000151984,True,near-000,43,15,10,9.375,2,down,1,1
282,1,True,4.075910300016403,800.0,50.0,33.0,15,False,2,down,0.16666666666666666,18,0.2474172000074759,0.32244449999416247,0.5698617000016384,0.8970879999687895,True,near-240,44,24,17,15.0,2,down,2,2
283,1,True,1.7224073999677785,800.0,50.0,33.0,0,False,2,down,0.16666666666666666,27,0,0.46377400000346825,0.46377400000346825,0.700314600020647,True,near-000,44,16,11,10.0,2,down,1,1
