trial,primeCorrect,primeTime,primeDepth,stimDepth,extraDepth,driveFrames,nearToFar,diopters,direction,size,intensity,extraLatency,mainLatency,totalLatency,responseTime,correct,caseLabel,caseTrial,trialsAtStep,stepCorrect,expected,w,direction,stepsize,stepChange
1,True,2.397683999995934,800.0,50.0,33.0,15,False,2,start,0.25,60,0.24659120000433177,0.9972116000135429,1.2438028000178747,0.28591529998811893,True,near-240,1,1,1,0.625,0.5,start,16,0
2,True,3.1638216999999713,800.0,800.0,50.0,0,False,0,start,0.25,60,0,0.9881797999842092,0.9881797999842092,0.8813059999956749,True,near-rndm,1,1,1,0.625,0.5,start,16,0
3,True,2.088685299997451,800.0,50.0,33.0,5,False,2,start,0.25,60,0.09168950002640486,1.0053412000124808,1.0970307000388857,0.33358350000344217,True,near-080,1,1,1,0.625,0.5,start,16,0
4,True,2.021310900017852,800.0,50.0,33.0,0,False,2,start,0.25,60,0,0.9911934999981895,0.9911934999981895,0.5042093000083696,True,near-000,1,1,1,0.625,0.5,start,16,0
5,True,3.361962399998447,800.0,33.0,50.0,0,False,3,start,0.25,60,0,0.9792319000116549,0.9792319000116549,0.5957650999771431,True,near-rnd3,1,1,1,0.625,0.5,start,16,0
6,True,3.066536400001496,800.0,50.0,33.0,10,False,2,start,0.25,60,0.1688692000170704,1.0110063999891281,1.1798756000061985,0.3958718000212684,True,near-160,1,1,1,0.625,0.5,start,16,0
7,True,3.904571399994893,800.0,100.0,50.0,0,False,1,start,0.25,60,0,1.0026897999923676,1.0026897999923676,0.9034767999837641,True,near-rnd2,1,1,1,0.625,0.5,start,16,0
8,True,2.2111204999964684,800.0,50.0,33.0,0,False,2,start,0.25,44,0,0.7423564000055194,0.7423564000055194,0.4712230000004638,True,near-000,2,1,1,0.625,1.0,start,16,0
9,True,1.778565599990543,800.0,100.0,50.0,0,False,1,start,0.25,44,0,0.7439802000008058,0.7439802000008058,0.46308549999957904,True,near-rnd2,2,1,1,0.625,1.0,start,16,0
10,True,1.638938300020527,800.0,50.0,33.0,10,False,2,start,0.25,44,0.16773260000627488,0.7507294999959413,0.9184621000022162,0.3732702999841422,True,near-160,2,1,1,0.625,1.0,start,16,0
11,True,1.9860680999991018,800.0,800.0,50.0,0,False,0,start,0.25,44,0,0.7309768999984954,0.7309768999984954,0.3477505999908317,True,near-rndm,2,1,1,0.625,1.0,start,16,0
12,True,1.5507393000007141,800.0,33.0,50.0,0,False,3,start,0.25,44,0,0.7273287000134587,0.7273287000134587,0.7399619999923743,False,near-rnd3,2,1,0,0.625,1.0,start,16,0
13,True,2.538172600005055,800.0,50.0,33.0,5,False,2,start,0.25,44,0.08809879998443648,0.7431627000041772,0.8312614999886137,0.4331819000071846,True,near-080,2,1,1,0.625,1.0,start,16,0
14,True,2.8395411999954376,800.0,50.0,33.0,15,False,2,start,0.25,44,0.253761800006032,0.7432695000024978,0.9970313000085298,0.4108602999767754,True,near-240,2,1,1,0.625,1.0,start,16,0
15,True,2.5998610999959055,800.0,33.0,50.0,0,False,3,start,0.25,44,0,0.7245026000018697,0.7245026000018697,0.5551458999980241,True,near-rnd3,3,2,1,1.25,1.0,start,16,0
16,True,2.0922037000127602,800.0,800.0,50.0,0,False,0,start,0.25,28,0,0.46987909998279065,0.46987909998279065,0.578095700009726,True,near-rndm,3,1,1,0.625,1.0,start,16,0
17,True,1.7998652000096627,800.0,50.0,33.0,5,False,2,start,0.25,28,0.0918664000055287,0.485774600005243,0.5776410000107717,0.5525266999902669,True,near-080,3,1,1,0.625,1.0,start,16,0
18,True,1.7147151999815833,800.0,100.0,50.0,0,False,1,start,0.25,28,0,0.48750469999504276,0.48750469999504276,0.6075380999827757,True,near-rnd2,3,1,1,0.625,1.0,start,16,0
19,True,1.7214382000092883,800.0,50.0,33.0,0,False,2,start,0.25,28,0,0.48666699999012053,0.48666699999012053,0.5179502000100911,True,near-000,3,1,1,0.625,1.0,start,16,0
20,True,2.6485135999973863,800.0,50.0,33.0,10,False,2,start,0.25,28,0.17038039999897592,0.49175020001712255,0.6621306000160985,0.48167130001820624,True,near-160,3,1,1,0.625,1.0,start,16,0
21,True,2.0644775000109803,800.0,50.0,33.0,15,False,2,start,0.25,28,0.24609030000283383,0.49657980000483803,0.7426701000076719,0.44778439999208786,True,near-240,3,1,1,0.625,1.0,start,16,0
22,True,2.1789440999855287,800.0,100.0,50.0,0,False,1,start,0.25,12,0,0.23557459999574348,0.23557459999574348,0.7384768999763764,True,near-rnd2,4,1,1,0.625,0.5,start,16,0
23,True,3.0693144999968354,800.0,50.0,33.0,5,False,2,start,0.25,12,0.09340719997999258,0.2307843999878969,0.3241915999678895,1.2533372000034433,False,near-080,4,1,0,0.625,0.5,start,16,0
24,True,1.3105679999862332,800.0,50.0,33.0,10,False,2,start,0.25,12,0.17180389998247847,0.23652979999314994,0.4083336999756284,1.030053599999519,True,near-160,4,1,1,0.625,0.5,start,16,0
25,True,1.8703886999865063,800.0,50.0,33.0,15,False,2,start,0.25,12,0.2524730000004638,0.23989500000607222,0.492368000006536,0.9541668999881949,False,near-240,4,1,0,0.625,0.5,start,16,0
26,True,2.180505500000436,800.0,33.0,50.0,0,False,3,start,0.25,28,0,0.47171899999375455,0.47171899999375455,1.4983189000049606,False,near-rnd3,4,1,0,0.625,0.5,start,16,0
27,True,2.6831730999983847,800.0,800.0,50.0,0,False,0,start,0.25,12,0,0.21833170001627877,0.21833170001627877,0.7402353000070434,True,near-rndm,4,1,1,0.625,0.5,start,16,0
28,True,2.035846299986588,800.0,50.0,33.0,0,False,2,start,0.25,12,0,0.2269562000001315,0.2269562000001315,1.7131908999872394,False,near-000,4,1,0,0.625,0.5,start,16,0
29,True,2.62113970000064,800.0,800.0,50.0,0,False,0,start,0.25,0,0,0.025154400005703792,0.025154400005703792,1.2420325999846682,True,near-rndm,5,1,1,0.625,0.5,start,16,0
30,False,1.1099392999894917,800.0,50.0,33.0,15,False,2,up,0.25,28,0.25174529998912476,0.493269099999452,0.7450143999885768,0.6072740000090562,True,near-240,5,1,1,0.625,0.5,up,16,0
31,True,3.837594500015257,800.0,50.0,33.0,10,False,2,start,0.25,0,0.17222469998523593,0.03674650000175461,0.20897119998699054,1.0896816999884322,False,near-160,5,1,0,0.625,0.5,start,16,0
32,True,1.7721771000069566,800.0,100.0,50.0,0,False,1,start,0.25,0,0,0.034665599989239126,0.034665599989239126,1.7758022999914829,False,near-rnd2,5,1,0,0.625,0.5,start,16,0
33,True,1.820728799997596,800.0,50.0,33.0,5,False,2,up,0.25,28,0.0900209000101313,0.4931405000097584,0.5831614000198897,1.216568699979689,False,near-080,5,1,0,0.625,0.5,up,16,0
34,True,3.1493271999934223,800.0,33.0,50.0,0,False,3,up,0.25,44,0,0.7266322000068612,0.7266322000068612,0.9969356000074185,True,near-rnd3,5,1,1,0.625,0.5,up,16,0
35,True,1.639488499989966,800.0,50.0,33.0,0,False,2,up,0.25,28,0,0.49067279999144375,0.49067279999144375,0.993497000017669,True,near-000,5,1,1,0.625,0.5,up,16,0
36,True,3.006947800022317,800.0,50.0,33.0,10,False,2,up,0.25,16,0.16939550000824966,0.2944235999893863,0.46381909999763593,1.063139100006083,False,near-160,6,1,0,0.625,0.5,up,16,0
37,True,1.6351497999858111,800.0,50.0,33.0,5,False,2,up,0.25,28,0.09513790000346489,0.5008503000135534,0.5959882000170182,0.7450595999835059,True,near-080,6,2,1,1.25,1.0,up,16,0
38,True,3.67157770000631,800.0,800.0,50.0,0,False,0,start,0.25,0,0,0.02164309998624958,0.02164309998624958,0.8914218000136316,False,near-rndm,6,1,0,0.625,0.5,start,16,0
39,True,1.503967399999965,800.0,50.0,33.0,0,False,2,up,0.25,28,0,0.5516723000037018,0.5516723000037018,0.990204099973198,False,near-000,6,2,1,1.25,1.0,up,16,0
40,True,1.8171052999969106,800.0,100.0,50.0,0,False,1,up,0.25,16,0,0.30671559998882003,0.30671559998882003,0.8888557000027504,False,near-rnd2,6,1,0,0.625,0.5,up,16,0
41,True,1.428485799988266,800.0,33.0,50.0,0,False,3,up,0.25,44,0,0.7285161000036169,0.7285161000036169,1.5477451000188012,True,near-rnd3,6,2,2,1.25,1.0,up,16,0
42,True,2.089446899975883,800.0,50.0,33.0,15,False,2,up,0.25,28,0.25154130000737496,0.49343279999447986,0.7449741000018548,0.6538340999977663,True,near-240,5,1,1,0.625,0.5,up,16,0
43,True,4.045897400006652,800.0,50.0,33.0,15,False,2,up,0.25,28,0.24908420001156628,0.493601199996192,0.7426854000077583,0.5307557999913115,True,near-240,6,2,2,1.25,1.0,up,16,0
44,True,2.5612377999932505,800.0,50.0,33.0,10,False,2,up,0.25,16,0.1664765999885276,0.29181660001631826,0.45829320000484586,0.7388912999886088,True,near-160,7,2,1,1.25,1.0,up,16,0
45,True,2.3270673000079114,800.0,800.0,50.0,0,False,0,up,0.25,16,0,0.2825513999850955,0.2825513999850955,0.6501409999909811,True,near-rndm,7,1,1,0.625,0.5,up,16,0
46,True,1.6158885000040755,800.0,50.0,33.0,0,False,2,up,0.25,28,0,0.4885863999952562,0.4885863999952562,0.8115892999921925,True,near-000,7,3,2,1.875,1.0,up,16,0
47,True,2.3211732000054326,800.0,50.0,33.0,5,False,2,up,0.25,28,0.08907500002533197,0.48519730000407435,0.5742723000294063,0.6215211000235286,True,near-080,7,3,2,1.875,1.0,up,16,0
48,True,1.762653899990255,800.0,100.0,50.0,0,False,1,up,0.25,16,0,0.29711449999012984,0.29711449999012984,0.9112194999761414,True,near-rnd2,7,2,1,1.25,1.0,up,16,0
49,True,2.5389601000060793,800.0,33.0,50.0,0,False,3,up,0.25,44,0,0.722185000020545,0.722185000020545,0.6998594999895431,True,near-rnd3,7,3,3,1.875,1.0,up,16,0
50,True,3.1503059999959078,800.0,33.0,50.0,0,False,3,down,0.25,28,0,0.4664910999999847,0.4664910999999847,0.858146000013221,False,near-rnd3,8,1,0,0.625,0.5,down,8,0
51,True,1.771231099992292,800.0,50.0,33.0,10,False,2,up,0.25,16,0.16576659999554977,0.30332830001134425,0.469094900006894,0.6840225999767426,True,near-160,8,3,2,1.875,1.0,up,16,0
52,True,2.1703262999944855,800.0,50.0,33.0,15,False,2,up,0.25,28,0.24868960000458173,0.4952630999905523,0.743952699995134,0.42882150001241826,True,near-240,7,3,3,1.875,1.0,up,16,0
53,True,1.5990469999960624,800.0,800.0,50.0,0,False,0,up,0.25,16,0,0.36731349999899976,0.36731349999899976,0.7149462000234053,True,near-rndm,8,2,2,1.25,1.0,up,16,0
54,True,2.2027315000013914,800.0,100.0,50.0,0,False,1,up,0.25,16,0,0.29412420000880957,0.29412420000880957,0.8788490000006277,True,near-rnd2,8,3,2,1.875,1.0,up,16,0
55,True,1.5264988999988418,800.0,50.0,33.0,5,False,2,up,0.25,28,0.09168129999306984,0.49770820001140237,0.5893895000044722,0.7512100000167266,False,near-080,8,4,2,2.5,0.5,up,16,0
56,True,1.7936211999913212,800.0,50.0,33.0,0,False,2,up,0.25,28,0,0.4912450000119861,0.4912450000119861,0.6442707999958657,True,near-000,8,4,3,2.5,0.5,up,16,0
57,True,1.500050700007705,800.0,33.0,50.0,0,False,3,down,0.25,28,0,0.46760689999791794,0.46760689999791794,1.1866429999936372,False,near-rnd3,9,2,0,1.25,1,down,8,0
58,True,2.1911449000181165,800.0,100.0,50.0,0,False,1,up,0.25,16,0,0.29941259999759495,0.29941259999759495,0.7565331000078004,True,near-rnd2,9,4,3,2.5,0.5,up,16,0
59,True,2.7118573999905493,800.0,50.0,33.0,10,False,2,up,0.25,16,0.16777080000611022,0.3011656999879051,0.4689364999940153,0.6573716000129934,True,near-160,9,4,3,2.5,0.5,up,16,0
60,True,4.370556000008946,800.0,50.0,33.0,5,False,2,up,0.25,28,0.2019692000176292,0.48905229999218136,0.6910215000098106,0.4458802999870386,True,near-080,9,5,3,3.125,0.5,up,16,0
61,True,2.991858900000807,800.0,50.0,33.0,0,False,2,up,0.25,28,0,0.48412790001020767,0.48412790001020767,0.6151657000009436,True,near-000,9,5,4,3.125,0.5,up,16,0
62,True,2.4336361999739893,800.0,50.0,33.0,15,False,2,down,0.25,12,0.24980540000251494,0.23645520000718534,0.4862606000097003,0.6031820999924093,True,near-240,8,1,1,0.625,0.5,down,8,0
63,True,1.7362396999960765,800.0,800.0,50.0,0,False,0,up,0.25,16,0,0.2817242000019178,0.2817242000019178,0.7160229000146501,True,near-rndm,9,3,3,1.875,1.0,up,16,0
64,True,1.130105000018375,800.0,100.0,50.0,0,False,1,up,0.25,16,0,0.3023768000130076,0.3023768000130076,0.6018842000048608,True,near-rnd2,10,5,4,3.125,0.5,up,16,0
65,True,1.8756476000125986,800.0,50.0,33.0,15,False,2,down,0.25,12,0.24719480000203475,0.23341200000140816,0.4806068000034429,0.58681589999469,True,near-240,9,2,2,1.25,1,down,8,0
66,True,1.857768899993971,800.0,50.0,33.0,10,False,2,up,0.25,16,0.16876820000470616,0.2977166000055149,0.4664848000102211,0.5196051000093576,True,near-160,10,5,4,3.125,0.5,up,16,0
67,True,1.8571458000224084,800.0,50.0,33.0,0,False,2,down,0.25,12,0,0.22993939998559654,0.22993939998559654,1.074658500001533,False,near-000,10,1,0,0.625,0.5,down,8,0
68,True,1.669068299990613,800.0,50.0,33.0,5,False,2,up,0.25,28,0.08892190002370626,0.4894557999796234,0.5783777000033297,0.8176716000016313,True,near-080,10,6,4,3.75,0.5,up,16,0
69,True,1.5457215000060387,800.0,800.0,50.0,0,False,0,down,0.25,0,0,0.025203099998179823,0.025203099998179823,1.066197700012708,False,near-rndm,10,1,0,0.625,0.5,down,8,0
70,True,2.7183693000115454,800.0,33.0,50.0,0,False,3,up,0.25,36,0,0.5950103999930434,0.5950103999930434,2.1728547000093386,False,near-rnd3,10,1,0,0.625,1,up,4,0
71,True,5.058056000008946,800.0,33.0,50.0,0,False,3,up,0.25,36,0,0.6017529999953695,0.6017529999953695,1.0238956999965012,False,near-rnd3,11,2,0,1.25,1,up,4,0
72,True,2.103492800000822,800.0,50.0,33.0,10,False,2,down,0.25,0,0.17343090000213124,0.0356995000038296,0.20913040000596084,1.0583679999981541,False,near-160,11,1,0,0.625,0.5,down,8,0
73,True,10.226701500010677,800.0,50.0,33.0,0,False,2,down,0.25,12,0,0.23647400000481866,0.23647400000481866,2.1581448999932036,True,near-000,11,2,1,1.25,1,down,8,0
74,True,3.5444377999810968,800.0,100.0,50.0,0,False,1,down,0.25,0,0,0.035799300007056445,0.035799300007056445,1.364706299995305,True,near-rnd2,11,1,1,0.625,0.5,down,8,0
75,True,2.699803299998166,800.0,50.0,33.0,5,False,2,up,0.25,28,0.08705249999184161,0.6580962999723852,0.7451487999642268,2.413195100001758,False,near-080,11,7,4,4.375,0.5,up,16,0
76,True,2.1786029000068083,800.0,50.0,33.0,15,False,2,down,0.25,12,0.3459969999967143,0.2415700999845285,0.5875670999812428,0.7239518999995198,True,near-240,10,3,3,1.875,1,down,8,0
77,True,3.1222584000206552,800.0,800.0,50.0,0,False,0,down,0.25,0,0,0.02266260000760667,0.02266260000760667,2.000173000007635,False,near-rndm,11,2,0,1.25,1,down,8,0
78,True,2.2357602000120096,800.0,50.0,33.0,15,False,2,down,0.25,4,0.24772779998602346,0.1023814000072889,0.35010919999331236,1.4862814000225626,False,near-240,11,1,0,0.625,1,down,8,0
79,True,2.9017286999733187,800.0,50.0,33.0,0,False,2,down,0.25,12,0,0.2378792999952566,0.2378792999952566,2.1154378000064753,True,near-000,12,3,2,1.875,1,down,8,0
80,True,6.061551599996164,800.0,100.0,50.0,0,False,1,down,0.25,0,0,0.03477150000981055,0.03477150000981055,1.6409013999800663,False,near-rnd2,12,2,1,1.25,1,down,8,0
81,True,3.0657114000059664,800.0,33.0,50.0,0,False,3,up,0.25,40,0,0.6625442999938969,0.6625442999938969,2.0777816000045277,False,near-rnd3,12,1,0,0.625,1,up,4,0
82,True,2.5286962000245694,800.0,800.0,50.0,0,False,0,up,0.25,8,0,0.15879210000275634,0.15879210000275634,0.6319929000164848,True,near-rndm,12,1,1,0.625,1,up,4,0
83,True,2.4741024999821093,800.0,50.0,33.0,10,False,2,down,0.25,0,0.16761919998680241,0.038310500007355586,0.205929699994158,1.9489607000141405,False,near-160,12,2,0,1.25,1,down,8,0
84,True,3.66579470000579,800.0,50.0,33.0,5,False,2,up,0.25,28,0.08809710000059567,0.49459059999207966,0.5826876999926753,0.985225900018122,True,near-080,12,8,5,5.0,0.5,up,16,0
85,True,4.117192899982911,800.0,50.0,33.0,5,False,2,up,0.25,28,0.09309269997174852,0.495513400004711,0.5886060999764595,0.7403391000116244,True,near-080,13,9,6,5.625,0.5,up,16,1
86,True,2.64184130000649,800.0,800.0,50.0,0,False,0,up,0.25,8,0,0.15900799998780712,0.15900799998780712,0.9833878999925219,True,near-rndm,13,2,2,1.25,1,up,4,0
87,True,2.7400855000014417,800.0,50.0,33.0,0,False,2,down,0.25,12,0,0.23232389998156577,0.23232389998156577,1.028068899991922,False,near-000,13,4,2,2.5,1,down,8,0
88,True,3.705811099993298,800.0,100.0,50.0,0,False,1,down,0.25,0,0,0.03932650000206195,0.03932650000206195,1.1775754999835044,False,near-rnd2,13,3,1,1.875,1,down,8,0
89,True,4.241760600009002,800.0,33.0,50.0,0,False,3,up,0.25,40,0,0.6576042000087909,0.6576042000087909,0.5558390000078361,False,near-rnd3,13,2,0,1.25,1,up,4,0
90,True,3.741356199985603,800.0,50.0,33.0,15,False,2,down,0.25,4,0.25297000000136904,0.10491569997975603,0.35788569998112507,0.6810356999922078,False,near-240,12,2,0,1.25,1,down,8,0
91,True,4.915617099992232,800.0,50.0,33.0,10,False,2,up,0.25,8,0.1709829999890644,0.17319640002097003,0.34417940001003444,0.8755722000205424,False,near-160,13,1,0,0.625,1,up,4,0
92,True,3.343899400002556,800.0,50.0,33.0,10,False,2,up,0.25,8,0.17139259999385104,0.17173230001935735,0.3431249000132084,0.8423575000197161,False,near-160,14,2,0,1.25,1,up,4,0
93,True,3.7986313000146765,800.0,50.0,33.0,5,False,2,up,0.25,28,0.09185329999309033,0.4849124000174925,0.5767657000105828,0.5367186999937985,True,near-080,14,10,7,6.25,0.5,up,16,1
94,True,3.4926902999868616,800.0,50.0,33.0,0,False,2,down,0.25,12,0,0.23049839999293908,0.23049839999293908,0.9630884999933187,False,near-000,14,5,2,3.125,1,down,8,0
95,True,2.4960110999818426,800.0,50.0,33.0,15,False,2,up,0.25,12,0.2540959999896586,0.23123979999218136,0.48533579998183995,0.5986860000120942,True,near-240,13,1,1,0.625,1,up,4,0
96,True,5.699773600004846,800.0,800.0,50.0,0,False,0,up,0.25,8,0,0.15937020001001656,0.15937020001001656,0.6376364000025205,True,near-rndm,14,3,3,1.875,1,up,4,0
97,True,2.3041004999831785,800.0,33.0,50.0,0,False,3,up,0.25,44,0,0.7300476000236813,0.7300476000236813,1.235624499997357,True,near-rnd3,14,1,1,0.625,1,up,4,0
98,True,3.309701700025471,800.0,100.0,50.0,0,False,1,down,0.25,0,0,0.035421600012341514,0.035421600012341514,1.0296606000047177,False,near-rnd2,14,4,1,2.5,1,down,8,0
99,True,3.276742500020191,800.0,50.0,33.0,15,False,2,up,0.25,12,0.2469381999981124,0.23084540001582354,0.47778360001393594,0.611210500006564,True,near-240,14,2,2,1.25,1,up,4,0
100,True,4.419597600004636,800.0,50.0,33.0,0,False,2,up,0.25,20,0,0.3602015000069514,0.3602015000069514,0.7127267000032589,True,near-000,15,1,1,0.625,1,up,4,0
101,True,4.240485600021202,800.0,100.0,50.0,0,False,1,up,0.25,8,0,0.1763574999931734,0.1763574999931734,1.3716234999883454,False,near-rnd2,15,1,0,0.625,1,up,4,0
102,True,4.132812199997716,800.0,50.0,33.0,10,False,2,up,0.25,12,0.16769880001083948,0.22787410000455566,0.39557290001539513,0.7862016999861225,False,near-160,15,1,0,0.625,1,up,4,0
103,True,4.223800699983258,800.0,50.0,33.0,5,False,2,down,0.25,20,0.09336999998777173,0.3603018000139855,0.4536718000017572,0.6455977000005078,True,near-080,15,1,1,0.625,0.5,down,4,0
104,True,2.5430372999981046,800.0,33.0,50.0,0,False,3,up,0.25,44,0,0.7280872999981511,0.7280872999981511,0.935064199991757,False,near-rnd3,15,2,1,1.25,1,up,4,0
105,True,4.6972908999887295,800.0,800.0,50.0,0,False,0,down,0.25,4,0,0.09525170002598315,0.09525170002598315,0.9067550000036135,True,near-rndm,15,1,1,0.625,1,down,2,0
106,True,5.4010711000009906,800.0,50.0,33.0,5,False,2,down,0.25,20,0.08719739998923615,0.3668399000016507,0.4540372999908868,0.9763810000149533,False,near-080,16,2,1,1.25,1,down,4,0
107,True,5.119713899999624,800.0,50.0,33.0,15,False,2,up,0.25,12,0.25505649999831803,0.23102890001609921,0.48608540001441725,0.8937889000226278,True,near-240,15,3,3,1.875,1,up,4,0
108,True,5.172345099999802,800.0,800.0,50.0,0,False,0,down,0.25,4,0,0.09120020002592355,0.09120020002592355,0.6400642000080552,True,near-rndm,16,2,2,1.25,2,down,2,0
109,True,2.8515069999848492,800.0,50.0,33.0,10,False,2,up,0.25,12,0.16931910000857897,0.24077530001522973,0.4100944000238087,0.8049369000073057,True,near-160,16,2,1,1.25,1,up,4,0
110,True,4.937874700000975,800.0,100.0,50.0,0,False,1,up,0.25,8,0,0.16514229998574592,0.16514229998574592,0.6696488999878056,True,near-rnd2,16,2,1,1.25,1,up,4,0
111,True,5.228379000007408,800.0,50.0,33.0,0,False,2,up,0.25,20,0,0.3697419000091031,0.3697419000091031,0.8891726000001654,False,near-000,16,2,1,1.25,1,up,4,0
112,True,5.645406499999808,800.0,33.0,50.0,0,False,3,up,0.25,44,0,0.7273929000075441,0.7273929000075441,1.2211542000004556,True,near-rnd3,16,3,2,1.875,1,up,4,0
113,True,3.7568626000138465,800.0,50.0,33.0,5,False,2,down,0.25,20,0.09093860001303256,0.3567258999974001,0.4476645000104327,1.3388784999842755,False,near-080,17,3,1,1.875,1,down,4,0
114,True,5.429440700012492,800.0,50.0,33.0,15,False,2,down,0.25,8,0.25013030000263825,0.17410830000881106,0.4242386000114493,1.0212216999789234,False,near-240,16,1,0,0.625,1,down,2,0
115,True,4.042814999993425,800.0,33.0,50.0,0,False,3,up,0.25,44,0,0.7252717999799643,0.7252717999799643,0.5247066000010818,True,near-rnd3,17,4,3,2.5,1,up,4,0
116,True,5.281091299984837,800.0,50.0,33.0,10,False,2,up,0.25,12,0.16739090002374724,0.23830810000072233,0.40569900002446957,0.6861208000045735,False,near-160,17,3,1,1.875,1,up,4,0
117,True,2.5333529000054114,800.0,100.0,50.0,0,False,1,up,0.25,8,0,0.16740009997738525,0.16740009997738525,1.6849321000045165,False,near-rnd2,17,3,1,1.875,1,up,4,0
118,True,2.294966800021939,800.0,800.0,50.0,0,False,0,down,0.25,4,0,0.09462429999257438,0.09462429999257438,0.6300925999821629,True,near-rndm,17,3,3,1.875,2,down,2,0
119,True,2.690864500007592,800.0,50.0,33.0,0,False,2,up,0.25,20,0,0.4200254999741446,0.4200254999741446,0.7932901000021957,True,near-000,17,3,2,1.875,1,up,4,0
120,True,2.362314600002719,800.0,50.0,33.0,15,False,2,down,0.25,8,0.24768929998390377,0.17542059998959303,0.4231098999734968,1.3559610999946017,False,near-240,17,2,0,1.25,2,down,2,0
121,True,5.128297400020529,800.0,800.0,50.0,0,False,0,down,0.25,4,0,0.09186999997473322,0.09186999997473322,1.0728080999979284,True,near-rndm,18,4,4,2.5,2,down,2,0
122,True,3.9117030999914277,800.0,50.0,33.0,5,False,2,down,0.25,20,0.09327310000662692,0.36351660001673736,0.4567897000233643,0.7339109999884386,False,near-080,18,4,1,2.5,1,down,4,0
123,True,3.0603051999933086,800.0,50.0,33.0,10,False,2,up,0.25,12,0.1676549999974668,0.26131630002055317,0.42897130001802,1.2447032000054605,False,near-160,18,4,1,2.5,1,up,4,0
124,True,2.598276199976681,800.0,50.0,33.0,0,False,2,up,0.25,20,0,0.3645762999949511,0.3645762999949511,0.7742993000138085,False,near-000,18,4,2,2.5,1,up,4,0
125,True,1.934901100001298,800.0,100.0,50.0,0,False,1,up,0.25,8,0,0.16770950000500306,0.16770950000500306,1.0906584000040311,True,near-rnd2,18,4,2,2.5,1,up,4,0
126,True,4.754712900001323,800.0,33.0,50.0,0,False,3,up,0.25,44,0,0.7246472999977414,0.7246472999977414,2.5965685000119265,False,near-rnd3,18,5,3,3.125,1,up,4,0
127,True,2.9656330999860074,800.0,50.0,33.0,0,False,2,up,0.25,20,0,0.35982670000521466,0.35982670000521466,0.6673378000268713,False,near-000,19,5,2,3.125,1,up,4,0
128,True,1.685609400010435,800.0,800.0,50.0,0,False,0,down,0.25,4,0,0.09012150001944974,0.09012150001944974,0.6879464999947231,True,near-rndm,19,5,5,3.125,2,down,2,0
129,True,2.069236400013324,800.0,100.0,50.0,0,False,1,up,0.25,8,0,0.16690949999610893,0.16690949999610893,0.7627767999947537,False,near-rnd2,19,5,2,3.125,1,up,4,0
130,True,1.341005900001619,800.0,50.0,33.0,15,False,2,down,0.25,8,0.2535568000166677,0.17088430002331734,0.42444110003998503,0.7870415000070352,False,near-240,18,3,0,1.875,2,down,2,0
131,True,1.2662683999806177,800.0,50.0,33.0,10,False,2,up,0.25,16,0.1729011999850627,0.2993852999934461,0.4722864999785088,2.037364699994214,True,near-160,19,1,1,0.625,1,up,4,0
132,True,2.8813701000181027,800.0,50.0,33.0,5,False,2,up,0.25,24,0.09179169998969883,0.42544599997927435,0.5172376999689732,0.7035070999991149,True,near-080,19,1,1,0.625,1,up,2,0
133,True,4.248888199974317,800.0,33.0,50.0,0,False,3,up,0.25,44,0,0.7255594999878667,0.7255594999878667,1.7705304000119213,True,near-rnd3,19,6,4,3.75,1,up,4,0
134,True,1.6708769999968354,800.0,50.0,33.0,10,False,2,up,0.25,16,0.17369280001730658,0.2971543000021484,0.47084710001945496,0.9038468000071589,False,near-160,20,2,1,1.25,1,up,4,0
135,True,2.368625500006601,800.0,50.0,33.0,15,False,2,down,0.25,8,0.25019620000966825,0.16981170000508428,0.4200079000147525,1.3799199000059161,False,near-240,19,4,0,2.5,2,down,2,0
136,True,1.712226700008614,800.0,800.0,50.0,0,False,0,down,0.25,4,0,0.09536870001466013,0.09536870001466013,0.9864433000038844,True,near-rndm,20,6,6,3.75,2,down,2,0
137,True,1.8076561000198126,800.0,50.0,33.0,5,False,2,up,0.25,24,0.09011600000667386,0.42679779999889433,0.5169138000055682,1.1751940000103787,True,near-080,20,2,2,1.25,2,up,2,0
138,True,2.1319746999943163,800.0,33.0,50.0,0,False,3,up,0.25,44,0,0.7764243000128772,0.7764243000128772,1.0823995000100695,False,near-rnd3,20,7,4,4.375,1,up,4,0
139,True,2.100368899991736,800.0,50.0,33.0,0,False,2,up,0.25,24,0,0.4184747999825049,0.4184747999825049,0.7760936999984551,False,near-000,20,1,0,0.625,1,up,4,0
140,True,1.308575600007316,800.0,100.0,50.0,0,False,1,up,0.25,12,0,0.22954679999384098,0.22954679999384098,0.739009500015527,True,near-rnd2,20,1,1,0.625,1,up,4,0
141,True,2.3157572000054643,800.0,33.0,50.0,0,False,3,up,0.25,44,0,0.7271711000066716,0.7271711000066716,0.4305912999843713,False,near-rnd3,21,8,4,5.0,1,up,4,0
142,True,3.903736900014337,800.0,50.0,33.0,15,False,2,up,0.25,10,0.2495850999839604,0.19763100001728162,0.447216100001242,0.7325278000207618,False,near-240,20,1,0,0.625,2,up,1,0
143,True,1.6965456000179984,800.0,100.0,50.0,0,False,1,up,0.25,12,0,0.23278759999084286,0.23278759999084286,0.6564138999965508,True,near-rnd2,21,2,2,1.25,1,up,4,0
144,True,1.3682257999898866,800.0,50.0,33.0,0,False,2,up,0.25,24,0,0.41882089999853633,0.41882089999853633,0.4848436000174843,False,near-000,21,2,0,1.25,1,up,4,0
145,True,2.4076551999896765,800.0,50.0,33.0,5,False,2,up,0.25,24,0.09275669997441582,0.4290185999998357,0.5217752999742515,0.6684389000001829,False,near-080,21,3,2,1.875,2,up,2,0
146,True,2.30567939998582,800.0,800.0,50.0,0,False,0,down,0.25,2,0,0.06285139999818057,0.06285139999818057,0.6908175999997184,True,near-rndm,21,1,1,0.625,2,down,2,0
147,True,1.6213241999794263,800.0,50.0,33.0,10,False,2,up,0.25,16,0.16911030001938343,0.29963429999770597,0.4687446000170894,0.5653622999961954,False,near-160,21,3,1,1.875,1,up,4,0
148,True,2.0319865999917965,800.0,800.0,50.0,0,False,0,down,0.25,2,0,0.06201419999706559,0.06201419999706559,0.6407089999993332,True,near-rndm,22,2,2,1.25,2,down,2,0
149,True,2.4129701999772806,800.0,50.0,33.0,10,False,2,up,0.25,16,0.17193299997597933,0.2998488000012003,0.4717817999771796,0.3697217000008095,False,near-160,22,4,1,2.5,1,up,4,0
150,True,3.0960960000229534,800.0,50.0,33.0,0,False,2,up,0.25,28,0,0.48602730000857264,0.48602730000857264,0.5278522000007797,True,near-000,22,1,1,0.625,1,up,4,0
151,True,3.633029400021769,800.0,50.0,33.0,5,False,2,up,0.25,24,0.09180359999299981,0.42172990000108257,0.5135334999940824,0.4967883999925107,False,near-080,22,4,2,2.5,2,up,2,0
152,True,1.7652161000005435,800.0,33.0,50.0,0,False,3,up,0.25,44,0,0.7273565999930725,0.7273565999930725,0.20688220000010915,True,near-rnd3,22,9,5,5.625,1,up,4,1
153,True,1.6018306000041775,800.0,100.0,50.0,0,False,1,up,0.25,12,0,0.23788629999035038,0.23788629999035038,0.7453764999809209,True,near-rnd2,22,3,3,1.875,1,up,4,0
154,True,1.3254907999944407,800.0,50.0,33.0,15,False,2,up,0.25,10,0.24833090000902303,0.2069488000124693,0.4552797000214923,0.5878170000214595,False,near-240,21,2,0,1.25,2,up,1,0
155,True,1.8699772999971174,800.0,50.0,33.0,5,False,2,up,0.25,24,0.09527210000669584,0.5706395999877714,0.6659116999944672,0.14466799999354407,True,near-080,23,5,3,3.125,2,up,2,0
156,True,1.4980704999761656,800.0,50.0,33.0,0,False,2,up,0.25,28,0,0.4900807999947574,0.4900807999947574,0.4228919000015594,True,near-000,23,2,2,1.25,1,up,4,0
157,True,1.265207599994028,800.0,33.0,50.0,0,False,3,up,0.25,44,0,0.7276306999847293,0.7276306999847293,0.08131209999555722,True,near-rnd3,23,10,6,6.25,1,up,4,1
158,True,3.633140700025251,800.0,800.0,50.0,0,False,0,down,0.25,2,0,0.05974560001050122,0.05974560001050122,0.9877328000147827,False,near-rndm,23,3,2,1.875,2,down,2,0
159,True,1.0047102999815252,800.0,100.0,50.0,0,False,1,down,0.25,8,0,0.16752469999482855,0.16752469999482855,0.6815177999960724,True,near-rnd2,23,1,1,0.625,1,down,2,0
160,True,1.5010817000002135,800.0,50.0,33.0,15,False,2,up,0.25,10,0.2504610999894794,0.20127180000417866,0.45173289999365807,1.0924425999983214,False,near-240,22,3,0,1.875,2,up,1,0
161,True,2.455537400004687,800.0,50.0,33.0,10,False,2,up,0.25,20,0.17417830001795664,0.3720485999947414,0.546226900012698,0.3831437999906484,True,near-160,23,1,1,0.625,1,up,8,0
162,True,1.12680690002162,800.0,50.0,33.0,5,False,2,up,0.25,24,0.08891130000120029,0.4280610999849159,0.5169723999861162,0.9113740999891888,False,near-080,24,6,3,3.75,2,up,2,0
163,True,1.3993056000035722,800.0,100.0,50.0,0,False,1,down,0.25,8,0,0.1655462000053376,0.1655462000053376,0.8108704000187572,True,near-rnd2,24,2,2,1.25,2,down,2,0
164,True,3.817831499996828,800.0,50.0,33.0,15,False,2,up,0.25,10,0.248587599984603,0.21015820000320673,0.45874579998780973,0.5639765000087209,False,near-240,23,4,0,2.5,2,up,1,0
165,True,1.1828563000017311,800.0,50.0,33.0,10,False,2,up,0.25,20,0.17142169998260215,0.3688245000084862,0.5402461999910884,0.6304095000086818,False,near-160,24,2,1,1.25,1,up,8,0
166,True,1.3983057000150438,800.0,33.0,50.0,0,False,3,up,0.25,44,0,0.728204499988351,0.728204499988351,0.23762759999954142,True,near-rnd3,24,11,7,6.875,1,up,4,1
167,True,2.191442899988033,800.0,50.0,33.0,0,False,2,up,0.25,28,0,0.4889720000210218,0.4889720000210218,2.672382299992023,True,near-000,24,3,3,1.875,1,up,4,0
168,True,1.599674099998083,800.0,800.0,50.0,0,False,0,down,0.25,2,0,0.05791560001671314,0.05791560001671314,0.8338250999804586,True,near-rndm,24,4,3,2.5,2,down,2,0
169,True,1.512931600009324,800.0,50.0,33.0,15,False,2,up,0.25,11,0.24817690000054426,0.20970890001626685,0.4578858000168111,1.0366336000151932,False,near-240,24,1,0,0.625,2,up,1,0
170,True,3.6151398999791127,800.0,33.0,50.0,0,False,3,up,0.25,44,0,0.7278609999921173,0.7278609999921173,1.0428830000164453,False,near-rnd3,25,12,7,7.5,1,up,4,1
171,True,3.2517374999879394,800.0,50.0,33.0,0,False,2,down,0.25,24,0,0.4200127999938559,0.4200127999938559,1.1056656000146177,False,near-000,25,1,0,0.625,1,down,2,0
172,True,1.9201869999815244,800.0,50.0,33.0,10,False,2,up,0.25,20,0.16789079998852685,0.35880219997488894,0.5266929999634158,0.7749824000056833,False,near-160,25,3,1,1.875,1,up,8,0
173,True,1.8741154000163078,800.0,800.0,50.0,0,False,0,down,0.25,2,0,0.0653357999981381,0.0653357999981381,0.8789487000030931,True,near-rndm,25,5,4,3.125,2,down,2,0
174,True,1.6490151999751106,800.0,50.0,33.0,5,False,2,up,0.25,24,0.09218870001495816,0.43283490001340397,0.5250236000283621,0.8182017000217456,False,near-080,25,7,3,4.375,2,up,2,0
175,True,1.8721023000252899,800.0,100.0,50.0,0,False,1,down,0.25,8,0,0.26323039998533204,0.26323039998533204,0.8380449999822304,True,near-rnd2,25,3,3,1.875,2,down,2,0
176,True,1.4783950000128243,800.0,50.0,33.0,5,False,2,up,0.25,24,0.08829169999808073,0.43103929999051616,0.5193309999885969,0.8909058999852277,True,near-080,26,8,4,5.0,2,up,2,0
177,True,7.911968000000343,800.0,33.0,50.0,0,False,3,up,0.25,44,0,0.722536899993429,0.722536899993429,0.3259252000134438,False,near-rnd3,26,13,7,8.125,1,up,4,1
178,True,1.8814721999806352,800.0,50.0,33.0,10,False,2,up,0.25,20,0.23444069997640327,0.36491819997900166,0.5993588999554049,0.77331520000007,True,near-160,26,4,2,2.5,1,up,8,0
179,True,1.8203431000001729,800.0,800.0,50.0,0,False,0,down,0.25,2,0,0.058888600004138425,0.058888600004138425,0.9135210999811534,True,near-rndm,26,6,5,3.75,2,down,2,0
180,True,2.3138499000051524,800.0,50.0,33.0,15,False,2,up,0.25,11,0.25071729999035597,0.22249839999130927,0.47321569998166524,1.100645099999383,False,near-240,25,2,0,1.25,2,up,1,0
181,True,1.5649759000225458,800.0,100.0,50.0,0,False,1,down,0.25,8,0,0.1679234000039287,0.1679234000039287,1.0494630000030156,True,near-rnd2,26,4,4,2.5,2,down,2,0
182,True,4.820568099996308,800.0,50.0,33.0,0,False,2,down,0.25,24,0,0.4212567999784369,0.4212567999784369,0.5371047999942675,False,near-000,26,2,0,1.25,2,down,2,0
183,True,1.6019400999939535,800.0,50.0,33.0,10,False,2,up,0.25,20,0.1674176000233274,0.36310049999156035,0.5305181000148878,0.610112599999411,True,near-160,27,5,3,3.125,1,up,8,0
184,True,1.7170847999805119,800.0,800.0,50.0,0,False,0,down,0.25,2,0,0.0646281000226736,0.0646281000226736,0.8303668999869842,True,near-rndm,27,7,6,4.375,2,down,2,0
185,True,1.563582700007828,800.0,33.0,50.0,0,False,3,up,0.25,46,0,0.758347800001502,0.758347800001502,1.5373388000007253,False,near-rnd3,27,1,0,0.625,1,up,4,0
186,True,2.946115099999588,800.0,50.0,33.0,5,False,2,up,0.25,24,0.09441250000963919,0.4282513000071049,0.5226638000167441,0.8965441999898758,False,near-080,27,9,4,5.625,2,up,2,1
187,True,1.4423991000221577,800.0,50.0,33.0,15,False,2,up,0.25,11,0.2541295000119135,0.21474949998082593,0.4688789999927394,0.7270785000000615,True,near-240,26,3,1,1.875,2,up,1,0
188,True,2.069578399998136,800.0,100.0,50.0,0,False,1,down,0.25,8,0,0.16654199999175034,0.16654199999175034,1.2171428000146989,False,near-rnd2,27,5,4,3.125,2,down,2,0
189,True,1.7926155000168364,800.0,50.0,33.0,0,False,2,down,0.25,24,0,0.41636859998106956,0.41636859998106956,1.3483298000064678,False,near-000,27,3,0,1.875,2,down,2,0
190,True,2.2829965999990236,800.0,50.0,33.0,10,False,2,up,0.25,20,0.1680793999985326,0.3626828000124078,0.5307622000109404,0.7625078999844845,True,near-160,28,6,4,3.75,1,up,8,0
191,True,1.7415815999847837,800.0,50.0,33.0,0,False,2,down,0.25,24,0,0.4237173999717925,0.4237173999717925,0.8482214999967255,True,near-000,28,4,1,2.5,2,down,2,0
192,True,1.6803554999933112,800.0,33.0,50.0,0,False,3,up,0.25,46,0,0.7556012000131886,0.7556012000131886,0.956302999984473,False,near-rnd3,28,2,0,1.25,1,up,4,0
193,True,1.1205018000036944,800.0,50.0,33.0,15,False,2,up,0.25,11,0.2530927000043448,0.22105789999477565,0.47415059999912046,0.9677836000046227,True,near-240,27,4,2,2.5,2,up,1,0
194,True,1.6546628999931272,800.0,50.0,33.0,5,False,2,up,0.25,24,0.0923942000081297,0.5404612999991514,0.6328555000072811,0.8731231999990996,True,near-080,28,10,5,6.25,2,up,2,1
195,True,4.429845699982252,800.0,100.0,50.0,0,False,1,down,0.25,8,0,0.1657120999880135,0.1657120999880135,0.8712931000045501,True,near-rnd2,28,6,5,3.75,2,down,2,0
196,True,1.6145109999924898,800.0,800.0,50.0,0,False,0,down,0.25,2,0,0.05929989999276586,0.05929989999276586,0.9295888000051491,True,near-rndm,28,8,7,5.0,2,down,2,0
197,True,1.101729999994859,800.0,50.0,33.0,5,False,2,up,0.25,24,0.0929343999887351,0.4383158000127878,0.5312502000015229,0.6578695000207517,True,near-080,29,11,6,6.875,2,up,2,1
198,True,2.0402723000152037,800.0,33.0,50.0,0,False,3,up,0.25,50,0,0.8210959999996703,0.8210959999996703,0.5650614000041969,True,near-rnd3,29,1,1,0.625,1,up,8,0
199,True,3.226089400006458,800.0,50.0,33.0,10,False,2,up,0.25,20,0.16549889999441803,0.36953200001153164,0.5350309000059497,0.5299663999758195,True,near-160,29,7,5,4.375,1,up,8,0
200,False,2.0456674000015482,800.0,100.0,50.0,0,False,1,down,0.25,8,0,0.17748080001911148,0.17748080001911148,0.7966328000184149,True,near-rnd2,29,7,6,4.375,2,down,2,0
201,True,5.606969600019511,800.0,50.0,33.0,15,False,2,up,0.25,11,0.2502408000000287,0.2161813999991864,0.4664221999992151,0.9849943000008352,False,near-240,28,5,2,3.125,2,up,1,0
202,True,1.3053016000194475,800.0,50.0,33.0,0,False,2,down,0.25,24,0,0.4195616999932099,0.4195616999932099,0.4096627999970224,True,near-000,29,5,2,3.125,2,down,2,0
203,True,1.9847452999965753,800.0,800.0,50.0,0,False,0,down,0.25,2,0,0.05741079998551868,0.05741079998551868,0.5775681000086479,True,near-rndm,29,9,8,5.625,2,down,2,1
204,True,1.2598334999929648,800.0,800.0,50.0,0,False,0,down,0.25,1,0,0.04467879998264834,0.04467879998264834,0.6284234000195283,True,near-rndm,30,1,1,0.625,2,down,1,0
205,True,1.2221053000248503,800.0,33.0,50.0,0,False,3,up,0.25,50,0,0.8258675999823026,0.8258675999823026,0.565275400003884,True,near-rnd3,30,2,2,1.25,1,up,8,0
206,True,2.105852299981052,800.0,50.0,33.0,0,False,2,down,0.25,24,0,0.4258189999964088,0.4258189999964088,0.7727340999990702,False,near-000,30,6,2,3.75,2,down,2,0
207,True,1.5557074999960605,800.0,50.0,33.0,5,False,2,up,0.25,24,0.08747289999155328,0.43502340000122786,0.5224962999927811,0.696228799992241,True,near-080,30,12,7,7.5,2,up,2,1
208,True,1.3180006000038702,800.0,50.0,33.0,10,False,2,up,0.25,20,0.1725719999813009,0.3646902000182308,0.5372621999995317,0.46996029998990707,True,near-160,30,8,6,5.0,1,up,8,0
209,True,1.2707498999952804,800.0,50.0,33.0,15,False,2,up,0.25,11,0.25141370002529584,0.22243319998960942,0.47384690001490526,0.574427099985769,True,near-240,29,6,3,3.75,2,up,1,0
210,True,2.785275600006571,800.0,100.0,50.0,0,False,1,down,0.25,8,0,0.17365049998625182,0.17365049998625182,1.0615784999972675,True,near-rnd2,29,7,6,4.375,2,down,2,0
211,True,1.4381329999887384,800.0,50.0,33.0,5,False,2,up,0.25,24,0.08555889999843203,0.42955410000286065,0.5151130000012927,0.7016384000016842,True,near-080,31,13,8,8.125,2,up,2,1
212,True,1.5523438999953214,800.0,50.0,33.0,0,False,2,down,0.25,24,0,0.4249376000079792,0.4249376000079792,0.8640182999952231,True,near-000,31,7,3,4.375,2,down,2,0
213,True,1.6442044999857899,800.0,800.0,50.0,0,False,0,down,0.25,1,0,0.04936430000816472,0.04936430000816472,0.8985542999871541,True,near-rndm,31,2,2,1.25,2,down,1,0
214,True,2.046570500009693,800.0,50.0,33.0,15,False,2,up,0.25,11,0.2512566999939736,0.21614999999292195,0.46740669998689555,0.675933199992869,True,near-240,30,7,4,4.375,2,up,1,0
215,True,1.9531737999932375,800.0,33.0,50.0,0,False,3,up,0.25,50,0,0.8194179000274744,0.8194179000274744,0.5660537000221666,True,near-rnd3,31,3,3,1.875,1,up,8,0
216,True,1.3931524999788962,800.0,100.0,50.0,0,False,1,down,0.25,8,0,0.17455970001174137,0.17455970001174137,1.0884054999914952,True,near-rnd2,30,8,7,5.0,2,down,2,0
217,True,1.2453398999932688,800.0,50.0,33.0,10,False,2,up,0.25,20,0.17069359999732114,0.36352240000269376,0.5342160000000149,0.42697879998013377,True,near-160,31,9,7,5.625,1,up,8,1
218,True,1.8021257000218611,800.0,50.0,33.0,10,False,2,down,0.25,16,0.1709876999957487,0.29437300001154654,0.46536070000729524,0.46944199997233227,True,near-160,32,1,1,0.625,1,down,2,0
219,True,2.0997107999864966,800.0,50.0,33.0,0,False,2,down,0.25,24,0,0.4262077000166755,0.4262077000166755,0.7896905000088736,True,near-000,32,8,4,5.0,2,down,2,0
220,True,1.7056261000107042,800.0,800.0,50.0,0,False,0,down,0.25,1,0,0.04094400000758469,0.04094400000758469,0.7544467999832705,True,near-rndm,32,3,3,1.875,2,down,1,0
221,True,2.022289099986665,800.0,33.0,50.0,0,False,3,down,0.25,42,0,0.7810618999938015,0.7810618999938015,1.7290918999933638,False,near-rnd3,32,1,0,0.625,1,down,4,0
222,True,2.6094833999814,800.0,50.0,33.0,5,False,2,up,0.25,24,0.0946074000094086,0.5656204000115395,0.660227800020948,0.4870717999874614,True,near-080,32,14,9,8.75,2,up,2,1
223,True,1.3468054000113625,800.0,50.0,33.0,15,False,2,up,0.25,11,0.24845860002096742,0.2239656999881845,0.4724243000091519,0.5519119999953546,True,near-240,31,8,5,5.0,2,up,1,0
224,True,1.7106766999932006,800.0,100.0,50.0,0,False,1,down,0.25,8,0,0.3084025999996811,0.3084025999996811,0.6109255999908783,False,near-rnd2,31,9,7,5.625,2,down,2,1
225,True,1.365303500002483,800.0,50.0,33.0,10,False,2,down,0.25,16,0.17148680001264438,0.3007950999890454,0.4722819000016898,0.4874608999816701,True,near-160,33,2,2,1.25,2,down,2,0
226,True,1.8951387000270188,800.0,800.0,50.0,0,False,0,down,0.25,1,0,0.044428199995309114,0.044428199995309114,0.47809449999476783,True,near-rndm,33,4,4,2.5,2,down,1,0
227,True,1.083758199994918,800.0,50.0,33.0,5,False,2,up,0.25,24,0.08684299999731593,0.42506239999784157,0.5119053999951575,0.42040559998713434,True,near-080,33,15,10,9.375,2,up,2,1
228,True,2.14145650001592,800.0,100.0,50.0,0,False,1,down,0.25,8,0,0.2913604000059422,0.2913604000059422,0.4749613000021782,True,near-rnd2,32,10,8,6.25,2,down,2,1
229,True,1.221636700007366,800.0,50.0,33.0,0,False,2,down,0.25,24,0,0.424125899997307,0.424125899997307,0.6043267999775708,True,near-000,33,9,5,5.625,2,down,2,1
230,True,2.901598600001307,800.0,50.0,33.0,15,False,2,up,0.25,11,0.257054399990011,0.22746850000112318,0.4845228999911342,0.48546100000385195,True,near-240,32,9,6,5.625,2,up,1,1
231,True,1.6672235000005458,800.0,33.0,50.0,0,False,3,down,0.25,42,0,0.6888116000045557,0.6888116000045557,0.4306528999877628,True,near-rnd3,33,2,1,1.25,1,down,4,0
232,True,1.45060770001146,800.0,50.0,33.0,0,False,2,down,0.25,24,0,0.421062899986282,0.421062899986282,0.8175497000047471,True,near-000,34,10,6,6.25,2,down,2,1
233,True,1.9646633999946062,800.0,50.0,33.0,10,False,2,down,0.25,16,0.16834560001734644,0.30200820000027306,0.4703538000176195,0.533116800012067,True,near-160,34,3,3,1.875,2,down,2,0
234,True,1.9973980000067968,800.0,33.0,50.0,0,False,3,down,0.25,42,0,0.694304300006479,0.694304300006479,0.7363072999869473,False,near-rnd3,34,3,1,1.875,1,down,4,0
235,True,1.639528400002746,800.0,800.0,50.0,0,False,0,down,0.25,1,0,0.03853980000712909,0.03853980000712909,0.8259830999886617,True,near-rndm,34,5,5,3.125,2,down,1,0
236,True,1.151822199986782,800.0,50.0,33.0,5,False,2,up,0.25,24,0.08958989998791367,0.42268250000779517,0.5122723999957088,0.5955413999909069,True,near-080,34,16,11,10.0,2,up,2,1
237,True,1.130773599987151,800.0,50.0,33.0,15,False,2,up,0.25,11,0.33133519999682903,0.2225445999938529,0.5538797999906819,0.2717742999957409,False,near-240,33,10,6,6.25,2,up,1,1
238,True,2.4858868999872357,800.0,100.0,50.0,0,False,1,down,0.25,8,0,0.16244289997848682,0.16244289997848682,0.7107920999987982,True,near-rnd2,33,11,9,6.875,2,down,2,1
239,True,1.1790322000160813,800.0,50.0,33.0,5,False,2,up,0.25,24,0.09032630000729114,0.4199975000228733,0.5103238000301644,1.1185830000031274,True,near-080,35,17,12,10.625,2,up,2,2
240,True,1.9076775000139605,800.0,50.0,33.0,15,False,2,up,0.25,11,0.2511698000016622,0.2163525999931153,0.4675223999947775,0.8151552999916021,True,near-240,34,11,7,6.875,2,up,1,1
241,True,1.3455627999792341,800.0,100.0,50.0,0,False,1,down,0.25,7,0,0.1516379999811761,0.1516379999811761,0.709705599991139,True,near-rnd2,34,1,1,0.625,2,down,1,0
242,True,1.5921149000059813,800.0,800.0,50.0,0,False,0,down,0.25,1,0,0.04583220000495203,0.04583220000495203,0.8316040000063367,True,near-rndm,35,6,6,3.75,2,down,1,0
243,True,0.9572669999906793,800.0,50.0,33.0,0,False,2,down,0.25,24,0,0.41614009998738766,0.41614009998738766,0.5654678999853786,False,near-000,35,11,6,6.875,2,down,2,1
244,True,4.693110299995169,800.0,50.0,33.0,10,False,2,down,0.25,16,0.16826630002469756,0.30207470001187176,0.4703410000365693,0.3958754999912344,True,near-160,35,4,4,2.5,2,down,2,0
245,True,1.7000536000123248,800.0,33.0,50.0,0,False,3,down,0.25,42,0,0.6910870000137947,0.6910870000137947,0.4214373999857344,False,near-rnd3,35,4,1,2.5,1,down,4,0
246,True,2.1370218000083696,800.0,800.0,50.0,0,False,0,down,0.25,0,0,0.021981400001095608,0.021981400001095608,0.8935579000099096,True,near-rndm,36,1,1,0.625,2,down,2,0
247,True,1.3007940000097733,800.0,50.0,33.0,0,False,2,down,0.25,24,0,0.4650502000004053,0.4650502000004053,0.4477175000065472,False,near-000,36,12,6,7.5,2,down,2,1
248,True,1.8242014000134077,800.0,50.0,33.0,10,False,2,down,0.25,16,0.1727723999938462,0.29989690001821145,0.47266930001205765,0.6207442999875639,False,near-160,36,5,4,3.125,2,down,2,0
249,True,1.5461945999995805,800.0,33.0,50.0,0,False,3,up,0.25,46,0,0.7621972000051755,0.7621972000051755,0.11606580001534894,False,near-rnd3,36,1,0,0.625,1,up,2,0
250,True,1.1764834999921732,800.0,50.0,33.0,15,False,2,up,0.25,11,0.2473022000049241,0.21415419998811558,0.46145639999303967,0.5415278000000399,False,near-240,35,12,7,7.5,2,up,1,1
251,True,1.8240919999952894,800.0,100.0,50.0,0,False,1,down,0.25,7,0,0.15802550001535565,0.15802550001535565,0.8332750000117812,True,near-rnd2,35,2,2,1.25,2,down,1,0
252,True,2.524274299998069,800.0,50.0,33.0,5,False,2,up,0.25,24,0.09005299999262206,0.4210089000116568,0.5110619000042789,0.3867947999970056,True,near-080,36,18,13,11.25,2,up,2,2
253,True,1.2335481999907643,800.0,800.0,50.0,0,False,0,down,0.25,0,0,0.023574599996209145,0.023574599996209145,0.7436316999956034,False,near-rndm,37,2,1,1.25,2,down,2,0
254,True,2.1139618000015616,800.0,50.0,33.0,5,False,2,up,0.25,24,0.08849560000817291,0.4261695000168402,0.5146651000250131,0.6332353000179864,True,near-080,37,19,14,11.875,2,up,2,2
255,True,1.4878591999877244,800.0,100.0,50.0,0,False,1,down,0.25,7,0,0.15265579998958856,0.15265579998958856,0.683589899999788,True,near-rnd2,36,3,3,1.875,2,down,1,0
256,True,1.0535640000016429,800.0,50.0,33.0,15,False,2,up,0.25,11,0.25246059999335557,0.2225353000103496,0.4749959000037052,0.3426315000106115,False,near-240,36,13,7,8.125,2,up,1,1
257,True,1.0128879000258166,800.0,50.0,33.0,10,False,2,down,0.25,16,0.17150080000283197,0.3013323999766726,0.47283319997950457,0.6691949999949429,False,near-160,37,6,4,3.75,2,down,2,0
258,True,1.4745797000068706,800.0,33.0,50.0,0,False,3,up,0.25,46,0,0.7565156999917235,0.7565156999917235,0.1512349999975413,False,near-rnd3,37,2,0,1.25,2,up,2,0
259,True,1.068215000006603,800.0,50.0,33.0,0,False,2,down,0.25,24,0,0.4207367000053637,0.4207367000053637,0.5597606999799609,True,near-000,37,13,7,8.125,2,down,2,1
260,True,1.9011683000135235,800.0,800.0,50.0,0,False,0,down,0.25,0,0,0.020916600013151765,0.020916600013151765,0.6754630999930669,False,near-rndm,38,3,1,1.875,2,down,2,0
261,True,1.2548929000040516,800.0,50.0,33.0,0,False,2,down,0.25,24,0,0.4195879999897443,0.4195879999897443,0.6288658000121359,False,near-000,38,14,7,8.75,2,down,2,1
262,True,1.6468747000035364,800.0,50.0,33.0,15,False,2,up,0.25,11,0.252184999990277,0.21978980000130832,0.4719747999915853,0.45702180001535453,True,near-240,37,14,8,8.75,2,up,1,1
263,True,2.082585800002562,800.0,50.0,33.0,10,False,2,down,0.25,16,0.1675141000014264,0.30212789998040535,0.46964199998183176,0.5633426000131294,True,near-160,38,7,5,4.375,2,down,2,0
264,True,1.505883099976927,800.0,33.0,50.0,0,False,3,up,0.25,46,0,0.7582380000094417,0.7582380000094417,0.08121829997980967,False,near-rnd3,38,3,0,1.875,2,up,2,0
265,True,1.490758600004483,800.0,100.0,50.0,0,False,1,down,0.25,7,0,0.15054160001454875,0.15054160001454875,0.8103354000195395,False,near-rnd2,37,4,3,2.5,2,down,1,0
266,True,1.5817243000201415,800.0,800.0,50.0,0,False,0,down,0.25,0,0,0.023584799986565486,0.023584799986565486,0.6268933000101242,True,near-rndm,39,4,2,2.5,2,down,2,0
267,True,1.2047934999864083,800.0,100.0,50.0,0,False,1,down,0.25,7,0,0.2110951000067871,0.2110951000067871,0.5670694999862462,True,near-rnd2,38,5,4,3.125,2,down,1,0
268,True,1.2977493000216782,800.0,50.0,33.0,0,False,2,down,0.25,24,0,0.4232406000082847,0.4232406000082847,0.5320351000118535,True,near-000,39,15,8,9.375,2,down,2,1
269,True,2.151890600012848,800.0,50.0,33.0,15,False,2,up,0.25,11,0.2477867999987211,0.21273719999589957,0.4605239999946207,0.8801416999776848,False,near-240,38,15,8,9.375,2,up,1,1
270,True,1.3051976999850012,800.0,33.0,50.0,0,False,3,up,0.25,46,0,0.7586556999885943,0.7586556999885943,0.2747670999960974,False,near-rnd3,39,4,0,2.5,2,up,2,0
271,True,1.734360000002198,800.0,50.0,33.0,10,False,2,down,0.25,16,0.16753820001031272,0.29631100001279265,0.46384920002310537,0.4234504000050947,True,near-160,39,8,6,5.0,2,down,2,0
272,True,1.5228790999972261,800.0,50.0,33.0,15,False,2,up,0.25,11,0.2507736000115983,0.21100209999713115,0.4617757000087295,0.5842623999924399,True,near-240,39,16,9,10.0,2,up,1,1
273,True,1.3153939999756403,800.0,100.0,50.0,0,False,1,down,0.25,7,0,0.15201859999797307,0.15201859999797307,0.6013881000108086,True,near-rnd2,39,6,5,3.75,2,down,1,0
274,True,1.4666195999889169,800.0,33.0,50.0,0,False,3,up,0.25,48,0,0.7906235999835189,0.7906235999835189,0.066255200013984,False,near-rnd3,40,1,0,0.625,2,up,2,0
275,True,1.5111230000038631,800.0,50.0,33.0,0,False,2,down,0.25,24,0,0.4286716000060551,0.4286716000060551,0.5554112000099849,True,near-000,40,16,9,10.0,2,down,2,1
276,True,1.6621405000041705,800.0,50.0,33.0,10,False,2,down,0.25,16,0.16975919998367317,0.3039851999783423,0.47374439996201545,0.4747704000037629,False,near-160,40,9,6,5.625,2,down,2,1
277,True,1.2747435999917798,800.0,800.0,50.0,0,False,0,down,0.25,0,0,0.02176500001223758,0.02176500001223758,0.6639060000015888,True,near-rndm,40,5,3,3.125,2,down,2,0
278,True,1.8602326000109315,800.0,100.0,50.0,0,False,1,down,0.25,7,0,0.15521420000004582,0.15521420000004582,0.6488936000096146,True,near-rnd2,40,7,6,4.375,2,down,1,0
279,True,1.1571094999962952,800.0,50.0,33.0,10,False,2,down,0.25,16,0.16847609999240376,0.2984833999944385,0.4669594999868423,0.4840690999990329,True,near-160,41,10,7,6.25,2,down,2,1
280,True,1.3614164000027813,800.0,50.0,33.0,0,False,2,down,0.25,24,0,0.41477440000744537,0.41477440000744537,0.37053719998220913,False,near-000,41,17,9,10.625,2,down,2,2
281,True,1.270016599999508,800.0,800.0,50.0,0,False,0,down,0.25,0,0,0.01949040000909008,0.01949040000909008,0.8065428999834694,True,near-rndm,41,6,4,3.75,2,down,2,0
282,True,1.2490817000216339,800.0,33.0,50.0,0,False,3,up,0.25,48,0,0.7906568000034895,0.7906568000034895,0.03835899999830872,False,near-rnd3,41,2,0,1.25,2,up,2,0
283,True,1.2542511000065133,800.0,800.0,50.0,0,False,0,down,0.25,0,0,0.02178249999997206,0.02178249999997206,0.7416826999979094,False,near-rndm,42,7,4,4.375,2,down,2,0
284,True,2.2612000000081025,800.0,33.0,50.0,0,False,3,up,0.25,48,0,0.7845962999854237,0.7845962999854237,0.5888819000101648,True,near-rnd3,42,3,1,1.875,2,up,2,0
285,True,1.5925996000005398,800.0,100.0,50.0,0,False,1,down,0.25,7,0,0.15706860000500455,0.15706860000500455,0.6711794000002556,False,near-rnd2,41,8,6,5.0,2,down,1,0
286,True,1.4216665000130888,800.0,50.0,33.0,10,False,2,down,0.25,16,0.16791920000105165,0.2990474000107497,0.46696660001180135,0.26696859998628497,False,near-160,42,11,7,6.875,2,down,2,1
287,True,2.0425348000135273,800.0,50.0,33.0,0,False,2,down,0.25,24,0,0.5675570999737829,0.5675570999737829,0.4200401999987662,True,near-000,42,18,10,11.25,2,down,2,2
288,True,1.3359346000070218,800.0,50.0,33.0,0,False,2,down,0.25,24,0,0.4246276000048965,0.4246276000048965,0.6024944999953732,True,near-000,43,19,11,11.875,2,down,2,2
289,True,1.9031954999954905,800.0,100.0,50.0,0,False,1,down,0.25,7,0,0.24652879999484867,0.24652879999484867,0.7866016000043601,False,near-rnd2,42,9,6,5.625,2,down,1,1
290,True,1.3142547000024933,800.0,33.0,50.0,0,False,3,up,0.25,48,0,0.7930070000002161,0.7930070000002161,0.4805972999893129,False,near-rnd3,43,4,1,2.5,2,up,2,0
291,True,1.1327598000061698,800.0,50.0,33.0,10,False,2,down,0.25,16,0.1756593000027351,0.29215670001576655,0.46781600001850165,0.887752399983583,False,near-160,43,12,7,7.5,2,down,2,1
292,True,1.478106900001876,800.0,800.0,50.0,0,False,0,down,0.25,0,0,0.025254600011976436,0.025254600011976436,0.808758700004546,False,near-rndm,43,8,4,5.0,2,down,2,0
293,True,1.2341756999958307,800.0,100.0,50.0,0,False,1,down,0.25,7,0,0.15939549999893643,0.15939549999893643,0.676729200000409,True,near-rnd2,43,10,7,6.25,2,down,1,1
294,True,1.1378610999963712,800.0,50.0,33.0,10,False,2,down,0.25,16,0.16716989999986254,0.30206690001068637,0.4692368000105489,0.5353615999920294,True,near-160,44,13,8,8.125,2,down,2,1
295,True,1.3510025999858044,800.0,50.0,33.0,0,False,2,down,0.25,24,0,0.42352150002261624,0.42352150002261624,1.1007632999971975,True,near-000,44,20,12,12.5,2,down,2,2
296,True,1.533086400013417,800.0,800.0,50.0,0,False,0,down,0.25,0,0,0.02118720000726171,0.02118720000726171,0.8122686999849975,False,near-rndm,44,9,4,5.625,2,down,2,1
297,True,0.9815524000150617,800.0,33.0,50.0,0,False,3,up,0.25,48,0,0.7862712000205647,0.7862712000205647,0.3493079000036232,True,near-rnd3,44,5,2,3.125,2,up,2,0
298,True,1.546133900003042,800.0,50.0,33.0,10,False,2,down,0.25,16,0.1708926999999676,0.29743500001495704,0.46832770001492463,0.444639699999243,False,near-160,45,14,8,8.75,2,down,2,1
299,True,1.6133828999882098,800.0,33.0,50.0,0,False,3,up,0.25,48,0,0.8762293999898247,0.8762293999898247,0.10328250000020489,True,near-rnd3,45,6,3,3.75,2,up,2,0
300,True,1.5153616999741644,800.0,100.0,50.0,0,False,1,down,0.25,7,0,0.14536909997696057,0.14536909997696057,0.8783746999979485,True,near-rnd2,44,11,8,6.875,2,down,1,1
301,True,1.5023040999949444,800.0,800.0,50.0,0,False,0,down,0.25,0,0,0.02150100001017563,0.02150100001017563,0.9571250000153668,False,near-rndm,45,10,4,6.25,2,down,2,1
302,True,1.0409529999888036,800.0,50.0,33.0,0,False,2,down,0.25,24,0,0.4212200999900233,0.4212200999900233,0.5036215999862179,False,near-000,45,21,12,13.125,2,down,2,2
303,True,1.6935403000097722,800.0,800.0,50.0,0,False,0,up,0.25,1,0,0.04813139999168925,0.04813139999168925,0.6313507999875583,True,near-rndm,46,1,1,0.625,2,up,1,0
304,True,1.2455023000075016,800.0,100.0,50.0,0,False,1,down,0.25,7,0,0.15613540000049397,0.15613540000049397,0.6833733000094071,True,near-rnd2,45,12,9,7.5,2,down,1,1
305,True,1.0906701000058092,800.0,50.0,33.0,0,False,2,down,0.25,24,0,0.425176199991256,0.425176199991256,0.687072700005956,True,near-000,46,22,13,13.75,2,down,2,2
306,True,1.3644440999778453,800.0,33.0,50.0,0,False,3,up,0.25,48,0,0.7918322999903467,0.7918322999903467,0.33661460000439547,False,near-rnd3,46,7,3,4.375,2,up,2,0
307,True,1.5271955000062007,800.0,50.0,33.0,10,False,2,down,0.25,16,0.17121070000575855,0.3066172999970149,0.4778280000027735,0.6200760999927297,True,near-160,46,15,9,9.375,2,down,2,1
308,True,1.1939824000000954,800.0,800.0,50.0,0,False,0,up,0.25,1,0,0.03777189998072572,0.03777189998072572,0.9419361000182107,True,near-rndm,47,2,2,1.25,3,up,1,0
309,True,1.834158900019247,800.0,33.0,50.0,0,False,3,up,0.25,48,0,0.787496300006751,0.787496300006751,0.5924080999975558,False,near-rnd3,47,8,3,5.0,2,up,2,0
310,True,1.7179857000010088,800.0,100.0,50.0,0,False,1,down,0.25,7,0,0.15728220000164583,0.15728220000164583,0.6231890000053681,True,near-rnd2,46,13,10,8.125,2,down,1,1
311,True,1.281711699994048,800.0,50.0,33.0,10,False,2,down,0.25,16,0.17117570000118576,0.29517900000791997,0.4663547000091057,0.39843619999010116,True,near-160,47,16,10,10.0,2,down,2,1
312,True,1.2552980000036769,800.0,50.0,33.0,0,False,2,down,0.25,24,0,0.4181900000257883,0.4181900000257883,0.8623941999976523,True,near-000,47,23,14,14.375,2,down,2,2
313,True,1.7478610000107437,800.0,50.0,33.0,0,False,2,down,0.25,24,0,0.41931409999961033,0.41931409999961033,0.6923171000089496,True,near-000,48,24,15,15.0,2,down,2,2
314,True,3.4830207000195514,800.0,33.0,50.0,0,False,3,up,0.25,48,0,0.7895638000045437,0.7895638000045437,0.131556600012118,False,near-rnd3,48,9,3,5.625,2,up,2,1
315,True,1.4708477999956813,800.0,50.0,33.0,10,False,2,down,0.25,16,0.17355940002016723,0.30042410001624376,0.473983500036411,0.5012180000194348,True,near-160,48,17,11,10.625,2,down,2,2
316,True,1.0979527999879792,800.0,100.0,50.0,0,False,1,down,0.25,7,0,0.15539229998830706,0.15539229998830706,1.1299823999870569,True,near-rnd2,47,14,11,8.75,2,down,1,1
317,True,1.250333000003593,800.0,800.0,50.0,0,False,0,up,0.25,1,0,0.04335729999002069,0.04335729999002069,0.6612826000200585,True,near-rndm,48,3,3,1.875,3,up,1,0
318,True,2.9791416999942157,800.0,33.0,50.0,0,False,3,up,0.25,49,0,0.912939700006973,0.912939700006973,0.36011469998629764,True,near-rnd3,49,1,1,0.625,2,up,1,0
319,True,1.3971340999996755,800.0,50.0,33.0,10,False,2,down,0.25,16,0.1719345000165049,0.30158749999827705,0.47352200001478195,0.3348577999859117,False,near-160,49,18,11,11.25,2,down,2,2
320,True,1.4441974999790546,800.0,100.0,50.0,0,False,1,down,0.25,6,0,0.13373019997379743,0.13373019997379743,0.8105090000026394,False,near-rnd2,48,1,0,0.625,2,down,1,0
321,True,1.7982020000054035,800.0,800.0,50.0,0,False,0,up,0.25,1,0,0.04557560000102967,0.04557560000102967,0.59055389999412,True,near-rndm,49,4,4,2.5,3,up,1,0
322,True,2.299446499993792,800.0,100.0,50.0,0,False,1,down,0.25,6,0,0.22281579999253154,0.22281579999253154,0.5218196999921929,True,near-rnd2,49,2,1,1.25,3,down,1,0
323,True,1.486399400018854,800.0,33.0,50.0,0,False,3,up,0.25,49,0,0.8039045000041369,0.8039045000041369,0.2625912000075914,False,near-rnd3,50,2,1,1.25,2,up,1,0
324,True,1.1499946999829262,800.0,50.0,33.0,10,False,2,down,0.25,16,0.16942489999928512,0.3026974000094924,0.47212230000877753,0.45665209999424405,False,near-160,50,19,11,11.875,2,down,2,2
325,True,1.9686710000096355,800.0,800.0,50.0,0,False,0,up,0.25,1,0,0.04349080001702532,0.04349080001702532,1.0431546000181697,True,near-rndm,50,5,5,3.125,3,up,1,0
326,True,1.4209259000199381,800.0,50.0,33.0,10,False,2,down,0.25,16,0.21561499999370426,0.2957453999842983,0.5113603999780025,0.5906115999969188,True,near-160,51,20,12,12.5,2,down,2,2
327,True,1.5649168000090867,800.0,100.0,50.0,0,False,1,down,0.25,6,0,0.13972130001639016,0.13972130001639016,1.178919500001939,True,near-rnd2,50,3,2,1.875,3,down,1,0
328,True,1.1750022000051104,800.0,800.0,50.0,0,False,0,up,0.25,1,0,0.044508300023153424,0.044508300023153424,1.000152100023115,True,near-rndm,51,6,6,3.75,3,up,1,0
329,True,1.3218131000176072,800.0,33.0,50.0,0,False,3,up,0.25,49,0,0.8049580999941099,0.8049580999941099,0.3213980000000447,True,near-rnd3,51,3,2,1.875,2,up,1,0
330,True,1.4863313999958336,800.0,100.0,50.0,0,False,1,down,0.25,6,0,0.1378905999881681,0.1378905999881681,0.7676365000079386,True,near-rnd2,51,4,3,2.5,3,down,1,0
331,True,2.5485588000155985,800.0,33.0,50.0,0,False,3,up,0.25,49,0,0.8048371000040788,0.8048371000040788,1.7973534000047948,False,near-rnd3,52,4,2,2.5,2,up,1,0
332,True,3.1373276000085752,800.0,50.0,33.0,10,False,2,down,0.25,16,0.16713449999224395,0.2899304000020493,0.45706489999429323,0.6106181999784894,True,near-160,52,21,13,13.125,2,down,2,2
333,True,1.3207292000006419,800.0,800.0,50.0,0,False,0,up,0.25,1,0,0.04185080001479946,0.04185080001479946,0.7216535000188742,False,near-rndm,52,7,6,4.375,3,up,1,0
334,True,1.8103065000032075,800.0,100.0,50.0,0,False,1,down,0.25,6,0,0.1298745000094641,0.1298745000094641,0.6980397999868728,True,near-rnd2,52,5,4,3.125,3,down,1,0
335,True,1.546803799981717,800.0,800.0,50.0,0,False,0,up,0.25,1,0,0.04212769999867305,0.04212769999867305,0.7552995999867562,True,near-rndm,53,8,7,5.0,3,up,1,0
336,True,0.942929400014691,800.0,50.0,33.0,10,False,2,down,0.25,16,0.16820709998137318,0.30348319999757223,0.4716902999789454,1.066657799994573,False,near-160,53,22,13,13.75,2,down,2,2
337,True,1.2764169999863952,800.0,33.0,50.0,0,False,3,up,0.25,49,0,0.8069001999974716,0.8069001999974716,0.3281295000051614,True,near-rnd3,53,5,3,3.125,2,up,1,0
338,True,1.6542417999880854,800.0,100.0,50.0,0,False,1,down,0.25,6,0,0.1367264000000432,0.1367264000000432,0.9678827000025194,False,near-rnd2,53,6,4,3.75,3,down,1,0
339,True,1.2170229000039399,800.0,33.0,50.0,0,False,3,up,0.25,49,0,0.8072136000264436,0.8072136000264436,0.3270726000191644,False,near-rnd3,54,6,3,3.75,2,up,1,0
340,True,1.415504000004148,800.0,50.0,33.0,10,False,2,down,0.25,16,0.17197130000567995,0.2921145999862347,0.46408589999191463,0.6463560999836773,True,near-160,54,23,14,14.375,2,down,2,2
341,True,1.3652463000034913,800.0,100.0,50.0,0,False,1,down,0.25,6,0,0.1374845000100322,0.1374845000100322,0.6655754999956116,True,near-rnd2,54,7,5,4.375,3,down,1,0
342,True,1.337552599987248,800.0,33.0,50.0,0,False,3,up,0.25,49,0,0.8075741999782622,0.8075741999782622,0.9264973000099417,False,near-rnd3,55,7,3,4.375,2,up,1,0
343,True,1.226572599989595,800.0,50.0,33.0,10,False,2,down,0.25,16,0.17035759999998845,0.3018312999920454,0.47218889999203384,0.5221409999940079,False,near-160,55,24,14,15.0,2,down,2,2
