trial,primeIter,primeCorrect,primeTime,primeDepth,stimDepth,extraDepth,driveFrames,nearToFar,diopters,direction,size,intensity,extraLatency,mainLatency,totalLatency,responseTime,correct,caseLabel,caseTrial,trialsAtStep,stepCorrect,expected,w,direction,stepsize,stepChange
1,2,True,1.2674106999766082,800.0,50.0,33.0,5,False,2,start,0.16666666666666666,60,0.09911089995875955,1.0222415000316687,1.1213523999904282,0.21030739997513592,True,near-080,1,1,1,0.625,0.5,start,16,0
2,4,True,2.0313588000135496,800.0,50.0,33.0,10,False,2,start,0.16666666666666666,60,0.1856135999551043,1.026313099951949,1.2119266999070533,0.34617559995967895,True,near-160,1,1,1,0.625,0.5,start,16,0
3,1,True,1.904218999959994,800.0,100.0,50.0,0,False,1,start,0.16666666666666666,60,0,1.002715399954468,1.002715399954468,0.27770069998223335,True,near-rnd2,1,1,1,0.625,0.5,start,16,0
4,2,True,2.0364857999957167,800.0,50.0,33.0,15,False,2,start,0.16666666666666666,60,0.25269729999126866,1.0094419000088237,1.2621392000000924,0.1444286000332795,True,near-240,1,1,1,0.625,0.5,start,16,0
5,1,True,1.8505814000382088,800.0,800.0,50.0,0,False,0,start,0.16666666666666666,60,0,0.9877994999988005,0.9877994999988005,0.17336910002632067,True,near-rndm,1,1,1,0.625,0.5,start,16,0
6,2,True,1.2563369999988936,800.0,33.0,50.0,0,False,3,start,0.16666666666666666,60,0,0.9950562000158243,0.9950562000158243,0.7524643000215292,False,near-rnd3,1,1,0,0.625,0.5,start,16,0
7,2,True,1.195269100018777,800.0,50.0,33.0,0,False,2,start,0.16666666666666666,60,0,1.0050961000379175,1.0050961000379175,0.29291489999741316,True,near-000,1,1,1,0.625,0.5,start,16,0
8,2,True,1.4297554999939166,800.0,800.0,50.0,0,False,0,start,0.16666666666666666,44,0,0.7487509000347927,0.7487509000347927,0.3272781000123359,True,near-rndm,2,1,1,0.625,1.0,start,16,0
9,2,True,1.147961100039538,800.0,50.0,33.0,15,False,2,start,0.16666666666666666,44,0.3182766999816522,0.7519697999814525,1.0702464999631047,0.34260280005401,True,near-240,2,1,1,0.625,1.0,start,16,0
10,2,True,0.969983399962075,800.0,33.0,50.0,0,False,3,start,0.16666666666666666,60,0,1.0505668999976479,1.0505668999976479,0.5063798000337556,True,near-rnd3,2,2,1,1.25,1.0,start,16,0
11,3,True,1.339568600000348,800.0,50.0,33.0,10,False,2,start,0.16666666666666666,44,0.2913964000181295,0.7707845999975689,1.0621810000156984,0.3008581000030972,True,near-160,2,1,1,0.625,1.0,start,16,0
12,1,True,1.4858999000280164,800.0,50.0,33.0,5,False,2,start,0.16666666666666666,44,0.0883880999754183,0.7492054000031203,0.8375934999785386,0.40841909998562187,True,near-080,2,1,1,0.625,1.0,start,16,0
13,2,True,2.546237500035204,800.0,100.0,50.0,0,False,1,start,0.16666666666666666,44,0,0.7594455999787897,0.7594455999787897,0.455137700017076,True,near-rnd2,2,1,1,0.625,1.0,start,16,0
14,2,True,1.420965299999807,800.0,50.0,33.0,0,False,2,start,0.16666666666666666,44,0,0.7521400999976322,0.7521400999976322,0.41304090002086014,True,near-000,2,1,1,0.625,1.0,start,16,0
15,1,True,1.58143389999168,800.0,50.0,33.0,0,False,2,start,0.16666666666666666,28,0,0.48537109995959327,0.48537109995959327,0.6276441999943927,True,near-000,3,1,1,0.625,1.0,start,16,0
16,2,True,0.9808351999963634,800.0,100.0,50.0,0,False,1,start,0.16666666666666666,28,0,0.5036967999767512,0.5036967999767512,0.5568563000415452,True,near-rnd2,3,1,1,0.625,1.0,start,16,0
17,2,True,0.9378121999907307,800.0,50.0,33.0,10,False,2,start,0.16666666666666666,28,0.1783642999944277,0.5108958000200801,0.6892601000145078,0.43416659999638796,True,near-160,3,1,1,0.625,1.0,start,16,0
18,2,True,1.0594132000114769,800.0,33.0,50.0,0,False,3,start,0.16666666666666666,44,0,0.7395255999872461,0.7395255999872461,0.7299465000396594,True,near-rnd3,3,1,1,0.625,1.0,start,16,0
19,1,True,1.6673556999885477,800.0,50.0,33.0,15,False,2,start,0.16666666666666666,28,0.2544245000462979,0.48821440001484007,0.742638900061138,0.48271730000851676,True,near-240,3,1,1,0.625,1.0,start,16,0
20,1,True,1.38627479999559,800.0,50.0,33.0,5,False,2,start,0.16666666666666666,28,0.08944899996276945,0.48807909997412935,0.5775280999368988,0.9562667000573128,False,near-080,3,1,0,0.625,1.0,start,16,0
21,1,True,1.3630275999894366,800.0,800.0,50.0,0,False,0,start,0.16666666666666666,28,0,0.47691949998261407,0.47691949998261407,0.36701250000623986,True,near-rndm,3,1,1,0.625,1.0,start,16,0
22,1,True,3.864196000038646,800.0,50.0,33.0,5,False,2,up,0.16666666666666666,36,0.08807380002690479,0.625152499997057,0.7132263000239618,0.3750962999765761,True,near-080,4,1,1,0.625,0.5,up,8,0
23,1,True,1.7664705999777652,800.0,50.0,33.0,10,False,2,start,0.16666666666666666,12,0.1690948999603279,0.2488199999788776,0.4179148999392055,0.7867145999916829,False,near-160,4,1,0,0.625,0.5,start,16,0
24,4,True,1.0767013999866322,800.0,50.0,33.0,0,False,2,start,0.16666666666666666,12,0,0.259060500015039,0.259060500015039,1.4764721999526955,False,near-000,4,1,0,0.625,0.5,start,16,0
25,1,True,1.4788544000475667,800.0,50.0,33.0,15,False,2,start,0.16666666666666666,12,0.2503040000447072,0.2328663999796845,0.4831704000243917,0.9381202000076883,True,near-240,4,1,1,0.625,0.5,start,16,0
26,3,True,1.0321841000113636,800.0,800.0,50.0,0,False,0,start,0.16666666666666666,12,0,0.2510719000129029,0.2510719000129029,0.4323861000011675,True,near-rndm,4,1,1,0.625,0.5,start,16,0
27,2,True,1.2210313000250608,800.0,33.0,50.0,0,False,3,start,0.16666666666666666,28,0,0.47807040001498535,0.47807040001498535,1.158391099947039,False,near-rnd3,4,1,0,0.625,0.5,start,16,0
28,1,True,1.6944323999923654,800.0,100.0,50.0,0,False,1,start,0.16666666666666666,12,0,0.23558129998855293,0.23558129998855293,0.8156209999579005,False,near-rnd2,4,1,0,0.625,0.5,start,16,0
29,2,True,1.4082660999847576,800.0,800.0,50.0,0,False,0,start,0.16666666666666666,0,0,0.03308989998186007,0.03308989998186007,0.7723186000366695,False,near-rndm,5,1,0,0.625,0.5,start,16,0
30,4,True,1.0837547999690287,800.0,50.0,33.0,15,False,2,start,0.16666666666666666,0,0.2793497000238858,0.06175769999390468,0.3411074000177905,1.456310100038536,True,near-240,5,1,1,0.625,0.5,start,16,0
31,2,True,1.1033495000447147,800.0,100.0,50.0,0,False,1,up,0.16666666666666666,20,0,0.3788685000035912,0.3788685000035912,0.5404172000125982,True,near-rnd2,5,1,1,0.625,0.5,up,8,0
32,4,True,1.2084286999888718,800.0,50.0,33.0,10,False,2,up,0.16666666666666666,20,0.1917552999802865,0.3906357999658212,0.5823910999461077,0.7403539000079036,False,near-160,5,1,0,0.625,0.5,up,8,0
33,1,True,2.666762800014112,800.0,50.0,33.0,0,False,2,up,0.16666666666666666,20,0,0.36112219997448847,0.36112219997448847,1.1407448000391014,False,near-000,5,1,0,0.625,0.5,up,8,0
34,1,True,1.4250119000207633,800.0,33.0,50.0,0,False,3,up,0.16666666666666666,36,0,0.5982044999836944,0.5982044999836944,0.740146399999503,True,near-rnd3,5,1,1,0.625,0.5,up,8,0
35,1,True,1.3575827000313438,800.0,50.0,33.0,5,False,2,up,0.16666666666666666,36,0.0932411999674514,0.6224479000084102,0.7156890999758616,0.4500203000498004,True,near-080,5,2,2,1.25,1,up,8,0
36,3,True,1.1397819999838248,800.0,33.0,50.0,0,False,3,up,0.16666666666666666,36,0,0.6225861999555491,0.6225861999555491,0.8022136999643408,False,near-rnd3,6,2,1,1.25,1,up,8,0
37,4,True,1.471271499991417,800.0,100.0,50.0,0,False,1,up,0.16666666666666666,20,0,0.39001430000644177,0.39001430000644177,0.8666593999951147,True,near-rnd2,6,2,2,1.25,1,up,8,0
38,2,True,2.2780451999860816,800.0,50.0,33.0,15,False,2,start,0.16666666666666666,0,0.2617413999978453,0.048132400028407574,0.30987380002625287,1.0978590000304393,False,near-240,6,1,0,0.625,0.5,start,16,0
39,1,True,1.3041893999907188,800.0,50.0,33.0,10,False,2,up,0.16666666666666666,20,0.16793340002186596,0.3732480999897234,0.5411815000115894,0.7004815000109375,True,near-160,6,2,1,1.25,1,up,8,0
40,3,True,1.3344583999714814,800.0,50.0,33.0,5,False,2,up,0.16666666666666666,36,0.1095181000418961,0.6549500000546686,0.7644681000965647,0.46016670000972226,True,near-080,6,3,3,1.875,1,up,8,0
41,2,True,1.5838599000126123,800.0,50.0,33.0,0,False,2,up,0.16666666666666666,20,0,0.3709773000446148,0.3709773000446148,0.7661540000117384,False,near-000,6,2,0,1.25,1,up,8,0
42,4,True,1.178655499999877,800.0,800.0,50.0,0,False,0,up,0.16666666666666666,8,0,0.19332299998495728,0.19332299998495728,0.6302863000310026,True,near-rndm,6,1,1,0.625,0.5,up,8,0
43,1,True,1.2751270000007935,800.0,33.0,50.0,0,False,3,up,0.16666666666666666,36,0,0.5957724999752827,0.5957724999752827,1.365586300031282,False,near-rnd3,7,3,1,1.875,1,up,8,0
44,3,True,1.1697132000117563,800.0,50.0,33.0,0,False,2,up,0.16666666666666666,28,0,0.505941100011114,0.505941100011114,0.6412595000001602,True,near-000,7,1,1,0.625,1,up,8,0
45,3,True,1.089395999966655,800.0,50.0,33.0,15,False,2,up,0.16666666666666666,8,0.264904799987562,0.18916240002727136,0.45406720001483336,1.1062770999851637,False,near-240,7,1,0,0.625,0.5,up,8,0
46,1,True,1.5827242999803275,800.0,100.0,50.0,0,False,1,up,0.16666666666666666,20,0,0.36846570001216605,0.36846570001216605,0.7968615000136197,True,near-rnd2,7,3,3,1.875,1,up,8,0
47,2,True,1.6889639999717474,800.0,50.0,33.0,5,False,2,down,0.16666666666666666,32,0.09148220001952723,0.5572597999707796,0.6487419999903068,0.5380994000006467,True,near-080,7,1,1,0.625,1,down,4,0
48,3,True,1.101149499998428,800.0,50.0,33.0,10,False,2,up,0.16666666666666666,20,0.18127940001431853,0.3841522999573499,0.5654316999716684,0.7251307999831624,True,near-160,7,3,2,1.875,1,up,8,0
49,2,True,1.602077899966389,800.0,800.0,50.0,0,False,0,up,0.16666666666666666,8,0,0.1735939999925904,0.1735939999925904,0.5591383000137284,True,near-rndm,7,2,2,1.25,1,up,8,0
50,2,True,1.2962318999925628,800.0,100.0,50.0,0,False,1,down,0.16666666666666666,16,0,0.3097878000116907,0.3097878000116907,0.6874292000429705,True,near-rnd2,8,1,1,0.625,1,down,4,0
51,4,True,1.0268634000094607,800.0,50.0,33.0,10,False,2,up,0.16666666666666666,20,0.19325630000093952,0.3946468999492936,0.5879031999502331,0.7296348999952897,True,near-160,8,4,3,2.5,1,up,8,0
52,3,True,1.3497222000150941,800.0,50.0,33.0,0,False,2,up,0.16666666666666666,28,0,0.5026040999800898,0.5026040999800898,1.1094043999910355,False,near-000,8,2,1,1.25,1,up,8,0
53,3,True,0.9155052999849431,800.0,33.0,50.0,0,False,3,up,0.16666666666666666,36,0,0.6225622000056319,0.6225622000056319,1.0310731999925338,False,near-rnd3,8,4,1,2.5,1,up,8,0
54,1,True,1.5903782999957912,800.0,800.0,50.0,0,False,0,up,0.16666666666666666,8,0,0.1573468999704346,0.1573468999704346,0.7681006999919191,True,near-rndm,8,3,3,1.875,1,up,8,0
55,1,True,1.7332981000072323,800.0,50.0,33.0,15,False,2,up,0.16666666666666666,8,0.25328550004633144,0.2709614000050351,0.5242469000513665,0.9912156999926083,True,near-240,8,2,1,1.25,1,up,8,0
56,3,True,2.552168900030665,800.0,50.0,33.0,5,False,2,down,0.16666666666666666,32,0.1149299000389874,0.5826585000031628,0.6975884000421502,0.5358119999873452,True,near-080,8,2,2,1.25,1,down,4,0
57,1,True,2.245788600004744,800.0,50.0,33.0,5,False,2,down,0.16666666666666666,32,0.09264619997702539,0.5584052999620326,0.651051499939058,0.42147239996120334,True,near-080,9,3,3,1.875,1,down,4,0
58,2,True,1.2106851999997161,800.0,50.0,33.0,10,False,2,up,0.16666666666666666,20,0.17547020001802593,0.37646229995880276,0.5519324999768287,0.6340552999754436,True,near-160,9,5,4,3.125,1,up,8,0
59,1,True,1.3378652000101283,800.0,100.0,50.0,0,False,1,down,0.16666666666666666,16,0,0.2972126000095159,0.2972126000095159,0.676626899978146,False,near-rnd2,9,2,1,1.25,1,down,4,0
60,3,True,1.4512046999880113,800.0,50.0,33.0,0,False,2,up,0.16666666666666666,28,0,0.5107856999966316,0.5107856999966316,0.5022931999992579,True,near-000,9,3,2,1.875,1,up,8,0
61,2,True,1.3265390999731608,800.0,33.0,50.0,0,False,3,up,0.16666666666666666,44,0,0.7400861000060104,0.7400861000060104,0.3613325000042096,False,near-rnd3,9,1,0,0.625,1,up,8,0
62,1,True,1.5808048999751918,800.0,800.0,50.0,0,False,0,down,0.16666666666666666,4,0,0.09388959995703772,0.09388959995703772,0.6207262999960221,True,near-rndm,9,1,1,0.625,1,down,4,0
63,3,True,1.140104899997823,800.0,50.0,33.0,15,False,2,up,0.16666666666666666,8,0.25912760000210255,0.19295959995361045,0.452087199955713,0.7437385999946855,True,near-240,9,3,2,1.875,1,up,8,0
64,1,True,1.495048000011593,800.0,33.0,50.0,0,False,3,up,0.16666666666666666,44,0,0.7267262000241317,0.7267262000241317,1.0650306000025012,False,near-rnd3,10,2,0,1.25,1,up,8,0
65,2,True,0.9613861999823712,800.0,50.0,33.0,0,False,2,up,0.16666666666666666,28,0,0.4998512000311166,0.4998512000311166,0.9447346999659203,True,near-000,10,4,3,2.5,1,up,8,0
66,1,True,4.5311702999752015,800.0,800.0,50.0,0,False,0,down,0.16666666666666666,4,0,0.09338069998193532,0.09338069998193532,0.706557099998463,True,near-rndm,10,2,2,1.25,1,down,4,0
67,4,True,1.3065251000225544,800.0,50.0,33.0,15,False,2,up,0.16666666666666666,8,0.2683456999948248,0.21062639995943755,0.4789720999542624,0.8214350999915041,True,near-240,10,4,3,2.5,1,up,8,0
68,1,True,1.5844703000038862,800.0,100.0,50.0,0,False,1,down,0.16666666666666666,16,0,0.30111679999390617,0.30111679999390617,0.6857223000261001,True,near-rnd2,10,3,2,1.875,1,down,4,0
69,2,True,1.0455065999994986,800.0,50.0,33.0,5,False,2,down,0.16666666666666666,28,0.09911100001772866,0.5054186999914236,0.6045297000091523,0.748801099951379,False,near-080,10,1,0,0.625,1,down,4,0
70,1,True,1.942238499992527,800.0,50.0,33.0,10,False,2,up,0.16666666666666666,20,0.16807000001426786,0.3681513999472372,0.5362213999615051,0.4876036999630742,True,near-160,10,6,5,3.75,1,up,8,0
71,2,True,1.4113277000142261,800.0,50.0,33.0,0,False,2,up,0.16666666666666666,28,0,0.502939099969808,0.502939099969808,0.6116386000066996,True,near-000,11,5,4,3.125,1,up,8,0
72,2,True,1.4528961000032723,800.0,50.0,33.0,5,False,2,down,0.16666666666666666,28,0.09426939999684691,0.4981625000364147,0.5924319000332616,0.694714599987492,True,near-080,11,2,1,1.25,1,down,4,0
73,2,True,1.3051923000020906,800.0,50.0,33.0,10,False,2,down,0.16666666666666666,16,0.1848552000010386,0.3087367999833077,0.49359199998434633,1.1807858999818563,False,near-160,11,1,0,0.625,1,down,4,0
74,2,True,2.3627775000059046,800.0,33.0,50.0,0,False,3,up,0.16666666666666666,52,0,0.8639326999546029,0.8639326999546029,0.9642650000168942,False,near-rnd3,11,1,0,0.625,1,up,8,0
75,1,True,1.5812406999757513,800.0,50.0,33.0,15,False,2,up,0.16666666666666666,8,0.2857469000155106,0.17703989997971803,0.46278679999522865,1.0560901000280865,False,near-240,11,5,3,3.125,1,up,8,0
76,2,True,0.9762713000527583,800.0,800.0,50.0,0,False,0,down,0.16666666666666666,4,0,0.09940030000871047,0.09940030000871047,0.6730006000143476,True,near-rndm,11,3,3,1.875,1,down,4,0
77,4,True,1.0203420000034384,800.0,100.0,50.0,0,False,1,down,0.16666666666666666,16,0,0.32876080001005903,0.32876080001005903,2.0175475000287406,True,near-rnd2,11,4,3,2.5,1,down,4,0
78,1,True,1.2610584000358358,800.0,33.0,50.0,0,False,3,up,0.16666666666666666,52,0,0.8552788000088185,0.8552788000088185,0.8357470999471843,True,near-rnd3,12,2,1,1.25,1,up,8,0
79,1,True,1.524220300023444,800.0,50.0,33.0,5,False,2,down,0.16666666666666666,28,0.0884686000063084,0.48973380000097677,0.5782024000072852,0.5733998999930918,True,near-080,12,3,2,1.875,1,down,4,0
80,1,True,1.3597683999687433,800.0,50.0,33.0,15,False,2,up,0.16666666666666666,8,0.2533402999979444,0.17843099997844547,0.43177129997638986,2.0053258999832906,False,near-240,12,6,3,3.75,1,up,8,0
81,1,True,1.568503399961628,800.0,800.0,50.0,0,False,0,down,0.16666666666666666,0,0,0.02776980004273355,0.02776980004273355,0.7998944999999367,False,near-rndm,12,1,0,0.625,1,down,4,0
82,2,True,1.4300440999795683,800.0,50.0,33.0,10,False,2,down,0.16666666666666666,16,0.17430529999546707,0.3146169999963604,0.48892229999182746,0.9553194000036456,True,near-160,12,2,1,1.25,1,down,4,0
83,1,True,1.8467227999935858,800.0,100.0,50.0,0,False,1,down,0.16666666666666666,16,0,0.30921370000578463,0.30921370000578463,0.5458671000087634,True,near-rnd2,12,5,4,3.125,1,down,4,0
84,1,True,1.632386899960693,800.0,50.0,33.0,0,False,2,up,0.16666666666666666,28,0,0.483914700045716,0.483914700045716,0.9117288999841549,False,near-000,12,6,4,3.75,1,up,8,0
85,4,True,1.9362552999518812,800.0,800.0,50.0,0,False,0,down,0.16666666666666666,0,0,0.05423829995561391,0.05423829995561391,0.8095749999629334,False,near-rndm,13,2,0,1.25,1,down,4,0
86,2,True,1.6826447999919765,800.0,50.0,33.0,10,False,2,down,0.16666666666666666,16,0.17601850000210106,0.3169519000221044,0.49297040002420545,0.6085790999932215,False,near-160,13,3,1,1.875,1,down,4,0
87,1,True,1.3127322999644093,800.0,100.0,50.0,0,False,1,down,0.16666666666666666,16,0,0.29555390001041815,0.29555390001041815,0.8235167000093497,False,near-rnd2,13,6,4,3.75,1,down,4,0
88,2,True,0.9313329000142403,800.0,50.0,33.0,5,False,2,down,0.16666666666666666,28,0.09846430004108697,0.500321300001815,0.5987856000429019,0.5697761000483297,True,near-080,13,4,3,2.5,1,down,4,0
89,2,True,1.5949045000015758,800.0,50.0,33.0,0,False,2,up,0.16666666666666666,28,0,0.49548599997069687,0.49548599997069687,0.604428699996788,False,near-000,13,7,4,4.375,1,up,8,0
90,2,True,0.8843749000225216,800.0,50.0,33.0,15,False,2,up,0.16666666666666666,8,0.25841410004068166,0.18801909999456257,0.4464332000352442,0.890180499991402,False,near-240,13,7,3,4.375,1,up,8,0
91,2,True,2.088739800034091,800.0,33.0,50.0,0,False,3,up,0.16666666666666666,52,0,0.8649698999943212,0.8649698999943212,1.017950200010091,True,near-rnd3,13,3,2,1.875,1,up,8,0
92,3,True,1.0071017000009306,800.0,50.0,33.0,15,False,2,up,0.16666666666666666,16,0.2604774000355974,0.3213748999987729,0.5818523000343703,0.6359634000109509,True,near-240,14,1,1,0.625,1,up,8,0
93,3,True,0.8741469999658875,800.0,800.0,50.0,0,False,0,up,0.16666666666666666,2,0,0.07870110002113506,0.07870110002113506,0.753993799968157,True,near-rndm,14,1,1,0.625,1,up,2,0
94,2,True,0.932745799946133,800.0,33.0,50.0,0,False,3,up,0.16666666666666666,52,0,0.8641745999921113,0.8641745999921113,0.710502700007055,True,near-rnd3,14,4,3,2.5,1,up,8,0
95,2,True,1.4639902000199072,800.0,50.0,33.0,10,False,2,down,0.16666666666666666,16,0.1755612000124529,0.30864379997365177,0.48420499998610467,0.5240861999918707,True,near-160,14,4,2,2.5,1,down,4,0
96,2,True,0.8509531000163406,800.0,100.0,50.0,0,False,1,down,0.16666666666666666,16,0,0.31441449996782467,0.31441449996782467,0.5892546999966726,False,near-rnd2,14,7,4,4.375,1,down,4,0
97,2,True,1.395637599984184,800.0,50.0,33.0,5,False,2,down,0.16666666666666666,28,0.0926826000213623,0.49803800001973286,0.5907206000410952,0.7891159999999218,True,near-080,14,5,4,3.125,1,down,4,0
98,1,True,1.4410169000038877,800.0,50.0,33.0,0,False,2,up,0.16666666666666666,28,0,0.48767870001029223,0.48767870001029223,0.7930768000078388,True,near-000,14,8,5,5.0,1,up,8,0
99,1,True,1.312088699953165,800.0,33.0,50.0,0,False,3,up,0.16666666666666666,52,0,0.8509670000057667,0.8509670000057667,0.4838914999854751,True,near-rnd3,15,5,4,3.125,1,up,8,0
100,2,True,1.0101763000129722,800.0,50.0,33.0,0,False,2,up,0.16666666666666666,28,0,0.4984880000120029,0.4984880000120029,0.5662677999935113,True,near-000,15,9,6,5.625,1,up,8,1
101,1,True,1.4514424999943003,800.0,50.0,33.0,5,False,2,down,0.16666666666666666,28,0.09296500001801178,0.4959940999979153,0.5889591000159271,0.4345808000070974,True,near-080,15,6,5,3.75,1,down,4,0
102,2,True,1.3803445000085048,800.0,50.0,33.0,10,False,2,down,0.16666666666666666,16,0.1774174000020139,0.3136582000297494,0.4910756000317633,0.8046304000308737,False,near-160,15,5,2,3.125,1,down,4,0
103,3,True,1.2428512999904342,800.0,800.0,50.0,0,False,0,up,0.16666666666666666,2,0,0.08675469999434426,0.08675469999434426,0.6529810000211,False,near-rndm,15,2,1,1.25,2,up,2,0
104,1,True,1.6428205000120215,800.0,100.0,50.0,0,False,1,down,0.16666666666666666,16,0,0.2955093000200577,0.2955093000200577,0.5612446999875829,True,near-rnd2,15,8,5,5.0,1,down,4,0
105,3,True,1.0273989000124857,800.0,50.0,33.0,15,False,2,up,0.16666666666666666,16,0.2602582999970764,0.3222338000196032,0.5824921000166796,0.6750451000407338,True,near-240,15,2,2,1.25,1,up,8,0
106,3,True,1.2139200000092387,800.0,800.0,50.0,0,False,0,up,0.16666666666666666,2,0,0.07567509997170419,0.07567509997170419,0.5105828000232577,True,near-rndm,16,3,2,1.875,2,up,2,0
107,1,True,1.217173399985768,800.0,50.0,33.0,10,False,2,up,0.16666666666666666,18,0.17669980000937358,0.34043030004249886,0.5171301000518724,0.557057400001213,False,near-160,16,1,0,0.625,1,up,2,0
108,3,True,1.0817597000277601,800.0,33.0,50.0,0,False,3,up,0.16666666666666666,52,0,0.8805764999706298,0.8805764999706298,0.8546374999568798,False,near-rnd3,16,6,4,3.75,1,up,8,0
109,1,True,1.4796493000467308,800.0,50.0,33.0,5,False,2,down,0.16666666666666666,24,0.09303839999483898,0.4286542999907397,0.5216926999855787,0.5359161000233144,True,near-080,16,1,1,0.625,1,down,4,0
110,2,True,1.8850568000343628,800.0,100.0,50.0,0,False,1,down,0.16666666666666666,16,0,0.3126518999924883,0.3126518999924883,0.8584812000044622,False,near-rnd2,16,9,5,5.625,1,down,4,1
111,2,True,0.8749362999806181,800.0,50.0,33.0,0,False,2,up,0.16666666666666666,28,0,0.4991589000565,0.4991589000565,0.6926339999772608,False,near-000,16,10,6,6.25,1,up,8,1
112,1,True,1.3276174000347964,800.0,50.0,33.0,15,False,2,up,0.16666666666666666,16,0.2546437000273727,0.3000981999794021,0.5547419000067748,0.8627107000211254,True,near-240,16,3,3,1.875,1,up,8,0
113,1,True,1.591824800008908,800.0,50.0,33.0,5,False,2,down,0.16666666666666666,24,0.08759810001356527,0.4302925000083633,0.5178906000219285,0.9053754000342451,True,near-080,17,2,2,1.25,1,down,4,0
114,4,True,1.1812807999667712,800.0,800.0,50.0,0,False,0,up,0.16666666666666666,2,0,0.08915280003566295,0.08915280003566295,0.9521903999848291,True,near-rndm,17,4,3,2.5,2,up,2,0
115,1,True,0.9702745000249706,800.0,50.0,33.0,10,False,2,up,0.16666666666666666,18,0.16968659998383373,0.3249109000316821,0.49459750001551583,1.1554602999822237,False,near-160,17,2,0,1.25,2,up,2,0
116,1,True,1.0705492999986745,800.0,100.0,50.0,0,False,1,down,0.16666666666666666,16,0,0.303942599974107,0.303942599974107,0.7209562999778427,False,near-rnd2,17,10,5,6.25,1,down,4,1
117,3,True,1.3141062000067905,800.0,33.0,50.0,0,False,3,up,0.16666666666666666,52,0,0.8824297999963164,0.8824297999963164,0.7250563999987207,True,near-rnd3,17,7,5,4.375,1,up,8,0
118,1,True,1.0688048000447452,800.0,50.0,33.0,0,False,2,up,0.16666666666666666,28,0,0.49262600002111867,0.49262600002111867,0.5204547999892384,True,near-000,17,11,7,6.875,1,up,8,1
119,2,True,0.8397747999988496,800.0,50.0,33.0,15,False,2,down,0.16666666666666666,12,0.25619089999236166,0.2505251999828033,0.506716099975165,1.0312590000103228,False,near-240,17,1,0,0.625,1,down,4,0
120,1,True,1.4822019999846816,800.0,50.0,33.0,10,False,2,up,0.16666666666666666,18,0.16980760003207251,0.3296402000123635,0.499447800044436,0.40579219994833693,True,near-160,18,3,1,1.875,2,up,2,0
121,2,True,1.5341226999880746,800.0,50.0,33.0,15,False,2,down,0.16666666666666666,12,0.2585380999953486,0.24697959999321029,0.5055176999885589,0.7237202000105754,False,near-240,18,2,0,1.25,1,down,4,0
122,1,True,3.303983799996786,800.0,50.0,33.0,5,False,2,down,0.16666666666666666,24,0.09305209998274222,0.42341540002962574,0.516467500012368,0.6645298000075854,False,near-080,18,3,2,1.875,1,down,4,0
123,3,True,0.9852733999723569,800.0,800.0,50.0,0,False,0,up,0.16666666666666666,2,0,0.07505549996858463,0.07505549996858463,0.7015514000086114,True,near-rndm,18,5,4,3.125,2,up,2,0
124,2,True,0.8140949999797158,800.0,100.0,50.0,0,False,1,up,0.16666666666666666,17,0,0.3237139999982901,0.3237139999982901,0.7588795999763533,True,near-rnd2,18,1,1,0.625,1,up,1,0
125,3,True,0.7147043999866582,800.0,50.0,33.0,0,False,2,up,0.16666666666666666,28,0,0.49543230002745986,0.49543230002745986,0.7266445999848656,False,near-000,18,12,7,7.5,1,up,8,1
126,1,True,0.9900947999558412,800.0,33.0,50.0,0,False,3,up,0.16666666666666666,52,0,0.8564785000053234,0.8564785000053234,0.43689779995474964,True,near-rnd3,18,8,6,5.0,1,up,8,0
127,2,True,1.077412299986463,800.0,50.0,33.0,15,False,2,up,0.16666666666666666,14,0.2595945000066422,0.28261100000236183,0.542205500009004,0.8330390999908559,True,near-240,19,1,1,0.625,1,up,2,0
128,4,True,1.2062742000562139,800.0,800.0,50.0,0,False,0,up,0.16666666666666666,2,0,0.08996459998888895,0.08996459998888895,0.6611001999699511,True,near-rndm,19,6,5,3.75,2,up,2,0
129,1,True,1.1638876000070013,800.0,50.0,33.0,10,False,2,up,0.16666666666666666,18,0.17174920003162697,0.3297490999684669,0.5014983000000939,0.9754575999686494,False,near-160,19,4,1,2.5,2,up,2,0
130,3,True,1.1609372000093572,800.0,100.0,50.0,0,False,1,up,0.16666666666666666,17,0,0.3333322000107728,0.3333322000107728,0.6632913000066765,False,near-rnd2,19,2,1,1.25,2,up,1,0
131,2,True,1.3882268000161275,800.0,50.0,33.0,0,False,2,up,0.16666666666666666,28,0,0.4977412999724038,0.4977412999724038,0.8745290999650024,False,near-000,19,13,7,8.125,1,up,8,1
132,3,True,2.1240134999970905,800.0,50.0,33.0,5,False,2,down,0.16666666666666666,24,0.10086900001624599,0.43234430003212765,0.5332133000483736,0.4882568000466563,True,near-080,19,4,3,2.5,1,down,4,0
133,4,True,1.554297900001984,800.0,33.0,50.0,0,False,3,up,0.16666666666666666,52,0,0.8782387999817729,0.8782387999817729,0.5488213000353426,True,near-rnd3,19,9,7,5.625,1,up,8,1
134,1,True,1.3984070000005886,800.0,50.0,33.0,0,False,2,up,0.16666666666666666,32,0,0.5506996000185609,0.5506996000185609,0.5132973999716341,True,near-000,20,1,1,0.625,1,up,4,0
135,3,True,1.092717099993024,800.0,50.0,33.0,15,False,2,up,0.16666666666666666,14,0.265687600011006,0.29048369999509305,0.556171300006099,0.43802070000674576,True,near-240,20,2,2,1.25,2,up,2,0
136,3,True,1.2908498999895528,800.0,50.0,33.0,10,False,2,up,0.16666666666666666,18,0.18994160002330318,0.3578705000109039,0.5478121000342071,0.5178302999702282,True,near-160,20,5,2,3.125,2,up,2,0
137,2,True,0.9063074999721721,800.0,800.0,50.0,0,False,0,up,0.16666666666666666,2,0,0.07178240001667291,0.07178240001667291,0.64254470000742,False,near-rndm,20,7,5,4.375,2,up,2,0
138,1,True,1.086809100001119,800.0,33.0,50.0,0,False,3,down,0.16666666666666666,50,0,0.8266992999706417,0.8266992999706417,0.7943595999968238,False,near-rnd3,20,1,0,0.625,1,down,2,0
139,1,True,1.0003539000172168,800.0,100.0,50.0,0,False,1,up,0.16666666666666666,17,0,0.3129352999967523,0.3129352999967523,0.48092799994628876,True,near-rnd2,20,3,2,1.875,2,up,1,0
140,4,True,1.0590143000008538,800.0,50.0,33.0,5,False,2,down,0.16666666666666666,24,0.12138329999288544,0.4647576999850571,0.5861409999779426,0.4963287000427954,True,near-080,20,5,4,3.125,1,down,4,0
141,1,True,1.1956818000180647,800.0,800.0,50.0,0,False,0,up,0.16666666666666666,2,0,0.060183299996424466,0.060183299996424466,1.0370222000055946,True,near-rndm,21,8,6,5.0,2,up,2,0
142,1,True,1.0869625000050291,800.0,100.0,50.0,0,False,1,up,0.16666666666666666,17,0,0.3961699000210501,0.3961699000210501,0.5602502999827266,False,near-rnd2,21,4,2,2.5,2,up,1,0
143,2,True,0.9687063000164926,800.0,50.0,33.0,15,False,2,up,0.16666666666666666,14,0.25755579996621236,0.2763672000146471,0.5339229999808595,0.5755544999847189,True,near-240,21,3,3,1.875,2,up,2,0
144,1,True,3.6915151000139304,800.0,50.0,33.0,0,False,2,up,0.16666666666666666,32,0,0.5473760000313632,0.5473760000313632,0.46572189999278635,False,near-000,21,2,1,1.25,1,up,4,0
145,2,True,1.0892877000151202,800.0,50.0,33.0,10,False,2,up,0.16666666666666666,18,0.17938900005538017,0.33637189998989925,0.5157609000452794,0.4027516999631189,True,near-160,21,6,3,3.75,2,up,2,0
146,1,True,1.3293400999973528,800.0,50.0,33.0,5,False,2,down,0.16666666666666666,24,0.09174730000086129,0.42676940001547337,0.5185167000163347,0.45662929996615276,False,near-080,21,6,4,3.75,1,down,4,0
147,2,True,0.9799118000082672,800.0,33.0,50.0,0,False,3,down,0.16666666666666666,50,0,0.8442050999728963,0.8442050999728963,0.41666430002078414,True,near-rnd3,21,2,1,1.25,2,down,2,0
148,3,True,1.1242326000356115,800.0,50.0,33.0,0,False,2,up,0.16666666666666666,32,0,0.5640560000319965,0.5640560000319965,0.48194510000757873,True,near-000,22,3,2,1.875,1,up,4,0
149,1,True,1.6347146999905817,800.0,50.0,33.0,15,False,2,up,0.16666666666666666,14,0.29939489997923374,0.2647351000341587,0.5641300000133924,0.6493271000217646,False,near-240,22,4,3,2.5,2,up,2,0
150,2,True,1.6598953999928199,800.0,100.0,50.0,0,False,1,up,0.16666666666666666,17,0,0.3279989999718964,0.3279989999718964,0.6620822999975644,False,near-rnd2,22,5,2,3.125,2,up,1,0
151,1,True,1.225240500003565,800.0,50.0,33.0,5,False,2,down,0.16666666666666666,24,0.09406830003717914,0.4311425000196323,0.5252108000568114,0.43270720000145957,True,near-080,22,7,5,4.375,1,down,4,0
152,2,True,2.0159133999841288,800.0,50.0,33.0,10,False,2,up,0.16666666666666666,18,0.17133829998783767,0.3292655000113882,0.5006037999992259,0.5954636000096798,True,near-160,22,7,4,4.375,2,up,2,0
153,1,True,1.904744200001005,800.0,33.0,50.0,0,False,3,down,0.16666666666666666,50,0,0.8237147000036202,0.8237147000036202,0.5099002000060864,True,near-rnd3,22,3,2,1.875,2,down,2,0
154,1,True,1.5970844999537803,800.0,800.0,50.0,0,False,0,up,0.16666666666666666,2,0,0.059832500002812594,0.059832500002812594,0.6469497999642044,False,near-rndm,22,9,6,5.625,2,up,2,1
155,3,True,1.6205521000083536,800.0,33.0,50.0,0,False,3,down,0.16666666666666666,50,0,0.8447624000255018,0.8447624000255018,0.6865295000025071,True,near-rnd3,23,4,3,2.5,2,down,2,0
156,2,True,0.8937691999599338,800.0,800.0,50.0,0,False,0,up,0.16666666666666666,2,0,0.1814429999794811,0.1814429999794811,0.47891849995357916,True,near-rndm,23,10,7,6.25,2,up,2,1
157,2,True,1.1757442000089213,800.0,50.0,33.0,0,False,2,up,0.16666666666666666,32,0,0.5586357999709435,0.5586357999709435,0.5742527999682352,True,near-000,23,4,3,2.5,1,up,4,0
158,2,True,0.8182055000215769,800.0,50.0,33.0,15,False,2,up,0.16666666666666666,14,0.2585976999835111,0.2725586000015028,0.5311562999850139,0.5525581000256352,True,near-240,23,5,4,3.125,2,up,2,0
159,1,True,1.3787535000010394,800.0,100.0,50.0,0,False,1,up,0.16666666666666666,17,0,0.3067215000046417,0.3067215000046417,0.6887195999734104,False,near-rnd2,23,6,2,3.75,2,up,1,0
160,2,True,1.7868848000071011,800.0,50.0,33.0,10,False,2,up,0.16666666666666666,18,0.18049659999087453,0.3331483999500051,0.5136449999408796,0.5152786999824457,True,near-160,23,8,5,5.0,2,up,2,0
161,4,True,1.1106589999981225,800.0,50.0,33.0,5,False,2,down,0.16666666666666666,24,0.11414560000412166,0.46319710003444925,0.5773427000385709,0.6266896000015549,False,near-080,23,8,5,5.0,1,down,4,0
162,2,True,2.0932574999751523,800.0,50.0,33.0,0,False,2,up,0.16666666666666666,32,0,0.5678841000190005,0.5678841000190005,0.5245206000399776,True,near-000,24,5,4,3.125,1,up,4,0
163,2,True,2.350585600011982,800.0,50.0,33.0,5,False,2,down,0.16666666666666666,24,0.1016733999713324,0.4388012999552302,0.5404746999265626,0.7097570999758318,False,near-080,24,9,5,5.625,1,down,4,1
164,2,True,0.9896409999928437,800.0,33.0,50.0,0,False,3,down,0.16666666666666666,50,0,0.8316847999813035,0.8316847999813035,0.3722908000345342,False,near-rnd3,24,5,3,3.125,2,down,2,0
165,2,True,0.9639466000371613,800.0,50.0,33.0,10,False,2,up,0.16666666666666666,18,0.17157389997737482,0.3370211000437848,0.5085950000211596,0.4556164999958128,True,near-160,24,9,6,5.625,2,up,2,1
166,2,True,0.8963696000282653,800.0,50.0,33.0,15,False,2,up,0.16666666666666666,14,0.25694389996351674,0.2772794999764301,0.5342233999399468,0.4675143000204116,True,near-240,24,6,5,3.75,2,up,2,0
167,1,True,1.7017311999807134,800.0,800.0,50.0,0,False,0,up,0.16666666666666666,2,0,0.058639900002162904,0.058639900002162904,1.3717698999680579,False,near-rndm,24,11,7,6.875,2,up,2,1
168,2,True,1.5224044999922626,800.0,100.0,50.0,0,False,1,up,0.16666666666666666,17,0,0.31924089998938143,0.31924089998938143,1.131661899969913,False,near-rnd2,24,7,2,4.375,2,up,1,0
169,2,True,1.3370598000474274,800.0,50.0,33.0,15,False,2,up,0.16666666666666666,14,0.2559266000171192,0.2798291000071913,0.5357557000243105,0.6296159999910742,True,near-240,25,7,6,4.375,2,up,2,0
170,3,True,0.8945726999663748,800.0,50.0,33.0,5,False,2,down,0.16666666666666666,24,0.10943539999425411,0.4497550000087358,0.5591904000029899,0.7018446000292897,False,near-080,25,10,5,6.25,1,down,4,1
171,2,True,1.0263897000113502,800.0,50.0,33.0,0,False,2,up,0.16666666666666666,32,0,0.5627158000133932,0.5627158000133932,0.6386775000137277,False,near-000,25,6,4,3.75,1,up,4,0
172,3,True,1.6060336999944411,800.0,800.0,50.0,0,False,0,up,0.16666666666666666,2,0,0.08512389997486025,0.08512389997486025,0.6914457999519072,True,near-rndm,25,12,8,7.5,2,up,2,1
173,2,True,1.4764966000220738,800.0,50.0,33.0,10,False,2,up,0.16666666666666666,18,0.17533970001386479,0.4491538999718614,0.6244935999857262,0.4563845999655314,True,near-160,25,10,7,6.25,2,up,2,1
174,1,True,1.6914800000377,800.0,100.0,50.0,0,False,1,up,0.16666666666666666,18,0,0.33552429999690503,0.33552429999690503,0.7503159000189044,True,near-rnd2,25,1,1,0.625,2,up,1,0
175,3,True,1.0809629000141285,800.0,33.0,50.0,0,False,3,down,0.16666666666666666,50,0,0.8360574999824166,0.8360574999824166,0.618930900003761,False,near-rnd3,25,6,3,3.75,2,down,2,0
176,2,True,0.725426500022877,800.0,33.0,50.0,0,False,3,down,0.16666666666666666,50,0,0.8404549999977462,0.8404549999977462,0.17718699999386445,True,near-rnd3,26,7,4,4.375,2,down,2,0
177,2,True,1.4604548999923281,800.0,50.0,33.0,0,False,2,up,0.16666666666666666,32,0,0.5541941000265069,0.5541941000265069,0.5006148000247777,True,near-000,26,7,5,4.375,1,up,4,0
178,1,True,1.3593229000107385,800.0,800.0,50.0,0,False,0,up,0.16666666666666666,2,0,0.06408029998419806,0.06408029998419806,1.0007787000504322,False,near-rndm,26,13,8,8.125,2,up,2,1
179,1,True,1.3700495999655686,800.0,100.0,50.0,0,False,1,up,0.16666666666666666,18,0,0.32891749998088926,0.32891749998088926,0.637131399998907,False,near-rnd2,26,2,1,1.25,2,up,1,0
180,2,True,1.335889199981466,800.0,50.0,33.0,15,False,2,up,0.16666666666666666,14,0.25840690004406497,0.29119469999568537,0.5496016000397503,0.8892443999648094,False,near-240,26,8,6,5.0,2,up,2,0
181,2,True,1.0699706000159495,800.0,50.0,33.0,5,False,2,up,0.16666666666666666,25,0.09928749996470287,0.46008879999862984,0.5593762999633327,0.5600289999856614,False,near-080,26,1,0,0.625,1,up,1,0
182,2,True,1.3840379000175744,800.0,50.0,33.0,10,False,2,up,0.16666666666666666,18,0.1731728999875486,0.34146829997189343,0.514641199959442,0.32333320000907406,True,near-160,26,11,8,6.875,2,up,2,1
183,2,True,0.9830567000317387,800.0,50.0,33.0,10,False,2,up,0.16666666666666666,18,0.1697353000054136,0.336774300027173,0.5065096000325866,0.6469679999863729,True,near-160,27,12,9,7.5,2,up,2,1
184,2,True,0.9822546999785118,800.0,800.0,50.0,0,False,0,up,0.16666666666666666,2,0,0.06487330002710223,0.06487330002710223,0.6262435999815352,True,near-rndm,27,14,9,8.75,2,up,2,1
185,1,True,1.2453776000184007,800.0,50.0,33.0,0,False,2,up,0.16666666666666666,32,0,0.5479779000161216,0.5479779000161216,0.8407861000159755,True,near-000,27,8,6,5.0,1,up,4,0
186,3,True,0.8687719000154175,800.0,33.0,50.0,0,False,3,down,0.16666666666666666,50,0,0.8349207999999635,0.8349207999999635,1.0948241000296548,True,near-rnd3,27,8,5,5.0,2,down,2,0
187,2,True,0.9421691999887116,800.0,50.0,33.0,5,False,2,up,0.16666666666666666,25,0.10076570004457608,0.4474811000400223,0.5482468000845984,0.5166565999970771,True,near-080,27,2,1,1.25,2,up,1,0
188,1,True,1.489168600004632,800.0,100.0,50.0,0,False,1,up,0.16666666666666666,18,0,0.32270490005612373,0.32270490005612373,0.6078761999960989,False,near-rnd2,27,3,1,1.875,2,up,1,0
189,1,True,2.2339605999877676,800.0,50.0,33.0,15,False,2,up,0.16666666666666666,14,0.2502337000332773,0.26605460001155734,0.5162883000448346,0.605143999971915,True,near-240,27,9,7,5.625,2,up,2,1
190,1,True,1.1950057999929413,800.0,50.0,33.0,5,False,2,up,0.16666666666666666,25,0.09397829999215901,0.4410329000093043,0.5350112000014633,0.5140359000070021,True,near-080,28,3,2,1.875,2,up,1,0
191,1,True,1.5995634000282735,800.0,100.0,50.0,0,False,1,up,0.16666666666666666,18,0,0.32930149999447167,0.32930149999447167,0.5815239999792539,False,near-rnd2,28,4,1,2.5,2,up,1,0
192,1,True,1.610653799958527,800.0,33.0,50.0,0,False,3,down,0.16666666666666666,50,0,0.821474899945315,0.821474899945315,0.273647699970752,False,near-rnd3,28,9,5,5.625,2,down,2,1
193,1,True,2.1331171999918297,800.0,800.0,50.0,0,False,0,up,0.16666666666666666,2,0,0.06130100000882521,0.06130100000882521,0.7534272000193596,False,near-rndm,28,15,9,9.375,2,up,2,1
194,2,True,1.2275644000037573,800.0,50.0,33.0,0,False,2,up,0.16666666666666666,32,0,0.5619988000253215,0.5619988000253215,0.7381228000158444,True,near-000,28,9,7,5.625,1,up,4,1
195,3,True,1.7576207999954931,800.0,50.0,33.0,15,False,2,up,0.16666666666666666,14,0.2711608000099659,0.2732096000108868,0.5443704000208527,0.5211930000223219,False,near-240,28,10,7,6.25,2,up,2,1
196,1,True,2.1674247999908403,800.0,50.0,33.0,10,False,2,up,0.16666666666666666,18,0.16764390002936125,0.3305633999989368,0.49820730002829805,0.5220847000018694,True,near-160,28,13,10,8.125,2,up,2,1
197,2,True,2.0449810000136495,800.0,50.0,33.0,15,False,2,up,0.16666666666666666,14,0.2626316000241786,0.27070529997581616,0.5333368999999948,0.503762700012885,True,near-240,29,11,8,6.875,2,up,2,1
198,2,True,1.2289544999948703,800.0,50.0,33.0,0,False,2,down,0.16666666666666666,31,0,0.5482327000354417,0.5482327000354417,0.6942701000371017,False,near-000,29,1,0,0.625,1,down,1,0
199,1,True,1.3951507000019774,800.0,33.0,50.0,0,False,3,down,0.16666666666666666,50,0,0.818804300040938,0.818804300040938,0.5065369000076316,True,near-rnd3,29,10,6,6.25,2,down,2,1
200,2,True,1.3759498000144958,800.0,800.0,50.0,0,False,0,up,0.16666666666666666,2,0,0.07221579999895766,0.07221579999895766,0.6164654999738559,True,near-rndm,29,16,10,10.0,2,up,2,1
201,3,True,1.233015300007537,800.0,100.0,50.0,0,False,1,up,0.16666666666666666,18,0,0.3480874999659136,0.3480874999659136,0.5174684000085108,True,near-rnd2,29,5,2,3.125,2,up,1,0
202,2,True,1.6619643999729306,800.0,50.0,33.0,5,False,2,up,0.16666666666666666,25,0.09258250001585111,0.4575531999580562,0.5501356999739073,0.5478354999795556,False,near-080,29,4,2,2.5,2,up,1,0
203,1,True,1.0747829000465572,800.0,50.0,33.0,10,False,2,up,0.16666666666666666,18,0.1701374999829568,0.33132110000588,0.5014585999888368,0.6064288000343367,True,near-160,29,14,11,8.75,2,up,2,1
204,2,True,1.2795158000080846,800.0,50.0,33.0,10,False,2,down,0.16666666666666666,17,0.1823438000283204,0.3211965999798849,0.5035404000082053,0.7509062999743037,False,near-160,30,1,0,0.625,2,down,1,0
205,2,True,1.0419635000289418,800.0,50.0,33.0,0,False,2,down,0.16666666666666666,31,0,0.5432616000180133,0.5432616000180133,0.5125967999920249,True,near-000,30,2,1,1.25,2,down,1,0
206,2,True,1.2677592000109144,800.0,800.0,50.0,0,False,0,up,0.16666666666666666,2,0,0.07050839997828007,0.07050839997828007,0.5959213000023738,True,near-rndm,30,17,11,10.625,2,up,2,2
207,3,True,1.3625408999505453,800.0,50.0,33.0,5,False,2,up,0.16666666666666666,25,0.11459469998953864,0.4565349000040442,0.5711295999935828,0.40559350000694394,True,near-080,30,5,3,3.125,2,up,1,0
208,2,True,0.9808758000144735,800.0,33.0,50.0,0,False,3,down,0.16666666666666666,50,0,0.8355722000123933,0.8355722000123933,0.778861099970527,True,near-rnd3,30,11,7,6.875,2,down,2,1
209,1,True,1.067221299977973,800.0,50.0,33.0,15,False,2,up,0.16666666666666666,14,0.2508633999968879,0.25942949997261167,0.5102928999694996,0.8055452000116929,True,near-240,30,12,9,7.5,2,up,2,1
210,1,True,1.3415882000117563,800.0,100.0,50.0,0,False,1,up,0.16666666666666666,18,0,0.3232236999901943,0.3232236999901943,0.5676357000484131,True,near-rnd2,30,6,3,3.75,2,up,1,0
211,1,True,1.5617492999881506,800.0,50.0,33.0,0,False,2,down,0.16666666666666666,31,0,0.5270378999994136,0.5270378999994136,0.7239582000183873,True,near-000,31,3,2,1.875,2,down,1,0
212,3,True,1.784215599996969,800.0,50.0,33.0,10,False,2,down,0.16666666666666666,17,0.1812880000215955,0.3324168000253849,0.5137048000469804,0.49389779998455197,True,near-160,31,2,1,1.25,3,down,1,0
213,2,True,6.067297299974598,800.0,100.0,50.0,0,False,1,up,0.16666666666666666,18,0,0.336424499982968,0.336424499982968,1.0176167999743484,False,near-rnd2,31,7,3,4.375,2,up,1,0
214,4,True,1.3171176000032574,800.0,50.0,33.0,15,False,2,up,0.16666666666666666,14,0.2723990000085905,0.29006319999461994,0.5624622000032105,0.5408437000005506,False,near-240,31,13,9,8.125,2,up,2,1
215,3,True,0.8016528000007384,800.0,33.0,50.0,0,False,3,down,0.16666666666666666,50,0,0.8397484999732114,0.8397484999732114,0.3455953999655321,False,near-rnd3,31,12,7,7.5,2,down,2,1
216,1,True,1.135330100019928,800.0,50.0,33.0,5,False,2,up,0.16666666666666666,25,0.09090079995803535,0.4512179000303149,0.5421186999883503,0.5550766999949701,False,near-080,31,6,3,3.75,2,up,1,0
217,3,True,1.3477297000354156,800.0,800.0,50.0,0,False,0,up,0.16666666666666666,2,0,0.08305670000845566,0.08305670000845566,0.573691500001587,True,near-rndm,31,18,12,11.25,2,up,2,2
218,3,True,0.8203926999703981,800.0,50.0,33.0,10,False,2,down,0.16666666666666666,17,0.18046920001506805,0.3455762999947183,0.5260455000097863,0.7649198000435717,False,near-160,32,3,1,1.875,3,down,1,0
219,3,True,1.0814860999817029,800.0,100.0,50.0,0,False,1,up,0.16666666666666666,18,0,0.4550642999820411,0.4550642999820411,0.476284799980931,True,near-rnd2,32,8,4,5.0,2,up,1,0
220,3,True,1.2174006999703124,800.0,33.0,50.0,0,False,3,down,0.16666666666666666,50,0,0.8372117000399157,0.8372117000399157,0.6822414000052959,False,near-rnd3,32,13,7,8.125,2,down,2,1
221,1,True,1.2401824000407942,800.0,800.0,50.0,0,False,0,up,0.16666666666666666,2,0,0.061071200005244464,0.061071200005244464,0.5936745000071824,True,near-rndm,32,19,13,11.875,2,up,2,2
222,3,True,0.9677960000117309,800.0,50.0,33.0,0,False,2,down,0.16666666666666666,31,0,0.554833400005009,0.554833400005009,0.544793400040362,False,near-000,32,4,2,2.5,2,down,1,0
223,2,True,1.197777400026098,800.0,50.0,33.0,5,False,2,up,0.16666666666666666,25,0.10253819997888058,0.4586195999872871,0.5611577999661677,0.3813798000337556,True,near-080,32,7,4,4.375,2,up,1,0
224,2,True,0.9026966000092216,800.0,50.0,33.0,15,False,2,up,0.16666666666666666,14,0.2542912000208162,0.2850791999953799,0.5393704000161961,0.6626860999967903,False,near-240,32,14,9,8.75,2,up,2,1
225,1,True,0.9525651999865659,800.0,800.0,50.0,0,False,0,up,0.16666666666666666,2,0,0.05852339998818934,0.05852339998818934,0.8280642000027001,True,near-rndm,33,20,14,12.5,2,up,2,2
226,3,True,1.275725399958901,800.0,50.0,33.0,15,False,2,up,0.16666666666666666,14,0.26373289996990934,0.2926576999598183,0.5563905999297276,0.40371539996704087,False,near-240,33,15,9,9.375,2,up,2,1
227,2,True,1.0430864000227302,800.0,50.0,33.0,10,False,2,down,0.16666666666666666,17,0.17716229998040944,0.3327220000210218,0.5098843000014313,0.39149900001939386,False,near-160,33,4,1,2.5,3,down,1,0
228,2,True,0.8733034000033513,800.0,50.0,33.0,5,False,2,up,0.16666666666666666,25,0.10357249999651685,0.4466326999827288,0.5502051999792457,0.6899435999803245,False,near-080,33,8,4,5.0,2,up,1,0
229,2,True,1.522971200000029,800.0,50.0,33.0,0,False,2,down,0.16666666666666666,31,0,0.5548453999799676,0.5548453999799676,0.6329395000357181,True,near-000,33,5,3,3.125,2,down,1,0
230,2,True,0.8285131999873556,800.0,100.0,50.0,0,False,1,up,0.16666666666666666,18,0,0.43018929997924715,0.43018929997924715,0.4372876999550499,True,near-rnd2,33,9,5,5.625,2,up,1,1
231,2,True,3.7938736000214703,800.0,33.0,50.0,0,False,3,down,0.16666666666666666,50,0,0.838992600038182,0.838992600038182,0.42319489998044446,True,near-rnd3,33,14,8,8.75,2,down,2,1
232,2,True,0.81346770003438,800.0,50.0,33.0,5,False,2,up,0.16666666666666666,25,0.09360289998585358,0.4498030000249855,0.5434059000108391,0.6214278000406921,False,near-080,34,9,4,5.625,2,up,1,1
233,2,True,1.3614324999507517,800.0,800.0,50.0,0,False,0,up,0.16666666666666666,2,0,0.0744319999939762,0.0744319999939762,0.7159986000042409,True,near-rndm,34,21,15,13.125,2,up,2,2
234,1,True,0.9966830000048503,800.0,33.0,50.0,0,False,3,down,0.16666666666666666,50,0,0.8192192999995314,0.8192192999995314,0.7643379000364803,True,near-rnd3,34,15,9,9.375,2,down,2,1
235,3,True,2.89829689997714,800.0,50.0,33.0,0,False,2,down,0.16666666666666666,31,0,0.5545480999862775,0.5545480999862775,1.1412745999987237,False,near-000,34,6,3,3.75,2,down,1,0
236,2,True,1.0147669999860227,800.0,50.0,33.0,15,False,2,up,0.16666666666666666,14,0.26619659998686984,0.28083810000680387,0.5470346999936737,0.8509735999978147,True,near-240,34,16,10,10.0,2,up,2,1
237,1,True,1.0675950000295416,800.0,100.0,50.0,0,False,1,up,0.16666666666666666,18,0,0.3316427000099793,0.3316427000099793,0.704777600010857,False,near-rnd2,34,10,5,6.25,2,up,1,1
238,2,True,1.3899951999774203,800.0,50.0,33.0,10,False,2,down,0.16666666666666666,17,0.18784520000917837,0.32266060000984,0.5105058000190184,0.5124362999922596,True,near-160,34,5,2,3.125,3,down,1,0
239,2,True,1.3158858999959193,800.0,33.0,50.0,0,False,3,down,0.16666666666666666,50,0,0.8328954000025988,0.8328954000025988,0.4607325999531895,True,near-rnd3,35,16,10,10.0,2,down,2,1
240,3,True,0.7769846999435686,800.0,50.0,33.0,15,False,2,up,0.16666666666666666,14,0.2683144000475295,0.27910580002935603,0.5474202000768855,1.173738899989985,True,near-240,35,17,11,10.625,2,up,2,2
241,3,True,0.9268534000148065,800.0,800.0,50.0,0,False,0,up,0.16666666666666666,2,0,0.07638270000461489,0.07638270000461489,0.6073948999983259,True,near-rndm,35,22,16,13.75,2,up,2,2
242,3,True,2.4541126000112854,800.0,50.0,33.0,5,False,2,up,0.16666666666666666,25,0.10601909999968484,0.4755451999953948,0.5815642999950796,0.5021502999588847,False,near-080,35,10,4,6.25,2,up,1,1
243,3,True,0.8123265999602154,800.0,50.0,33.0,10,False,2,down,0.16666666666666666,17,0.1863774000084959,0.4748429000028409,0.6612203000113368,0.47106770001119,True,near-160,35,6,3,3.75,3,down,1,0
244,4,True,0.9455489999963902,800.0,50.0,33.0,0,False,2,down,0.16666666666666666,31,0,0.5720342000131495,0.5720342000131495,0.9305747000034899,False,near-000,35,7,3,4.375,2,down,1,0
245,2,True,2.241129100031685,800.0,100.0,50.0,0,False,1,up,0.16666666666666666,18,0,0.3475082000368275,0.3475082000368275,0.8173974999808706,False,near-rnd2,35,11,5,6.875,2,up,1,1
246,3,True,1.4474991000024602,800.0,50.0,33.0,15,False,2,up,0.16666666666666666,14,0.2568468000390567,0.3017334000323899,0.5585802000714466,0.8304536999785341,False,near-240,36,18,11,11.25,2,up,2,2
247,2,True,0.8128058000002056,800.0,100.0,50.0,0,False,1,up,0.16666666666666666,18,0,0.35007379995658994,0.35007379995658994,0.6574867999879643,True,near-rnd2,36,12,6,7.5,2,up,1,1
248,2,True,1.2749569000443444,800.0,33.0,50.0,0,False,3,down,0.16666666666666666,50,0,0.8312336999806575,0.8312336999806575,0.4508301999885589,True,near-rnd3,36,17,11,10.625,2,down,2,2
249,2,True,1.1563426000066102,800.0,50.0,33.0,0,False,2,down,0.16666666666666666,31,0,0.5489130999776535,0.5489130999776535,0.8460240000276826,False,near-000,36,8,3,5.0,2,down,1,0
250,2,True,0.9024093999760225,800.0,50.0,33.0,5,False,2,up,0.16666666666666666,26,0.10249640000984073,0.4806893999921158,0.5831858000019565,0.48827760003041476,True,near-080,36,1,1,0.625,2,up,1,0
251,2,True,0.9113041000091471,800.0,50.0,33.0,10,False,2,down,0.16666666666666666,17,0.1727571000228636,0.3356461999937892,0.5084033000166528,0.5507151000201702,True,near-160,36,7,4,4.375,3,down,1,0
252,1,True,1.318990700005088,800.0,50.0,33.0,0,False,2,down,0.16666666666666666,31,0,0.5418482000241056,0.5418482000241056,0.5198328000260517,True,near-000,37,9,4,5.625,2,down,1,1
253,2,True,1.2465128999901935,800.0,50.0,33.0,10,False,2,down,0.16666666666666666,17,0.17601009999634698,0.3377561999950558,0.5137662999914028,0.6531291999854147,False,near-160,37,8,4,5.0,3,down,1,0
254,1,True,1.2513008000096306,800.0,50.0,33.0,5,False,2,up,0.16666666666666666,26,0.08869490004144609,0.49593400000594556,0.5846289000473917,0.4300882999668829,True,near-080,37,2,2,1.25,3,up,1,0
255,1,True,2.6042209999868646,800.0,100.0,50.0,0,False,1,up,0.16666666666666666,18,0,0.33200970001053065,0.33200970001053065,0.586565800011158,True,near-rnd2,37,13,7,8.125,2,up,1,1
256,2,True,1.2154531999840401,800.0,50.0,33.0,15,False,2,up,0.16666666666666666,14,0.2547657000250183,0.2667386999819428,0.5215044000069611,0.7318251000251621,False,near-240,37,19,11,11.875,2,up,2,2
257,4,True,1.5963914999738336,800.0,33.0,50.0,0,False,3,down,0.16666666666666666,50,0,0.8456241000094451,0.8456241000094451,1.24182750005275,False,near-rnd3,37,18,11,11.25,2,down,2,2
258,2,True,1.5111556999618188,800.0,100.0,50.0,0,False,1,up,0.16666666666666666,18,0,0.3315767999738455,0.3315767999738455,0.7059400999569334,False,near-rnd2,38,14,7,8.75,2,up,1,1
259,2,True,0.9444545999867842,800.0,50.0,33.0,15,False,2,up,0.16666666666666666,14,0.26470810000319034,0.2711438999976963,0.5358520000008866,0.6484938000212424,True,near-240,38,20,12,12.5,2,up,2,2
260,2,True,1.2146646000328474,800.0,50.0,33.0,0,False,2,down,0.16666666666666666,31,0,0.548132500029169,0.548132500029169,0.5805064999731258,False,near-000,38,10,4,6.25,2,down,1,1
261,2,True,1.1012476999894716,800.0,33.0,50.0,0,False,3,down,0.16666666666666666,50,0,0.8363036999944597,0.8363036999944597,0.6545739999855869,False,near-rnd3,38,19,11,11.875,2,down,2,2
262,3,True,1.2551650000386871,800.0,50.0,33.0,5,False,2,up,0.16666666666666666,26,0.10777120001148432,0.4723235000274144,0.5800947000388987,0.6533271999796852,False,near-080,38,3,2,1.875,3,up,1,0
263,2,True,0.9867180000292137,800.0,33.0,50.0,0,False,3,down,0.16666666666666666,50,0,0.8284779000096023,0.8284779000096023,0.37729030003538355,True,near-rnd3,39,20,12,12.5,2,down,2,2
264,1,True,1.4150901000248268,800.0,100.0,50.0,0,False,1,up,0.16666666666666666,18,0,0.3247358999797143,0.3247358999797143,0.6547175000305288,False,near-rnd2,39,15,7,9.375,2,up,1,1
265,2,True,0.9621215000515804,800.0,50.0,33.0,5,False,2,up,0.16666666666666666,26,0.0925456999684684,0.48370889999205247,0.5762545999605209,0.4503039999981411,True,near-080,39,4,3,2.5,3,up,1,0
266,2,True,0.8261371999979019,800.0,50.0,33.0,15,False,2,up,0.16666666666666666,14,0.2637207999941893,0.2868671999895014,0.5505879999836907,0.6387867000303231,True,near-240,39,21,13,13.125,2,up,2,2
267,3,True,2.172349700005725,800.0,33.0,50.0,0,False,3,down,0.16666666666666666,50,0,0.8453688999870792,0.8453688999870792,0.5215005000354722,False,near-rnd3,40,21,12,13.125,2,down,2,2
268,3,True,1.0970751999993809,800.0,50.0,33.0,5,False,2,up,0.16666666666666666,26,0.11107399995671585,0.4820099000353366,0.5930838999920525,1.2673705999623053,False,near-080,40,5,3,3.125,3,up,1,0
269,1,True,2.0027491999790072,800.0,50.0,33.0,15,False,2,up,0.16666666666666666,14,0.24873749999096617,0.2613346000434831,0.5100721000344492,0.9904891999904066,False,near-240,40,22,13,13.75,2,up,2,2
270,1,True,1.1053454999928363,800.0,100.0,50.0,0,False,1,up,0.16666666666666666,19,0,0.34926180000184104,0.34926180000184104,0.7715458000311628,True,near-rnd2,40,1,1,0.625,2,up,1,0
271,3,True,1.8806235000374727,800.0,100.0,50.0,0,False,1,up,0.16666666666666666,19,0,0.36236089997692034,0.36236089997692034,0.7712502999929711,True,near-rnd2,41,2,2,1.25,3,up,1,0
272,1,True,1.2429457000107504,800.0,50.0,33.0,15,False,2,up,0.16666666666666666,14,0.3748757999856025,0.2627363000065088,0.6376120999921113,1.2714195000007749,True,near-240,41,23,14,14.375,2,up,2,2
273,1,True,2.4352813999867067,800.0,50.0,33.0,5,False,2,up,0.16666666666666666,26,0.09315299999434501,0.463117900013458,0.556270900007803,0.5691279000020586,True,near-080,41,6,4,3.75,3,up,1,0
274,1,True,3.00746649998473,800.0,33.0,50.0,0,False,3,down,0.16666666666666666,50,0,0.8250081999576651,0.8250081999576651,0.43685980001464486,True,near-rnd3,41,22,13,13.75,2,down,2,2
275,2,True,1.0620042000082321,800.0,33.0,50.0,0,False,3,down,0.16666666666666666,50,0,0.8260286999866366,0.8260286999866366,1.8900712000322528,True,near-rnd3,42,23,14,14.375,2,down,2,2
276,2,True,1.1738578000222333,800.0,100.0,50.0,0,False,1,up,0.16666666666666666,19,0,0.3546273999963887,0.3546273999963887,0.6331416000030003,False,near-rnd2,42,3,2,1.875,3,up,1,0
277,2,True,1.2341958999750204,800.0,50.0,33.0,5,False,2,up,0.16666666666666666,26,0.10334010003134608,0.4747962999972515,0.5781364000285976,0.8526609999826178,True,near-080,42,7,5,4.375,3,up,1,0
278,1,True,1.4023419999866746,800.0,50.0,33.0,15,False,2,up,0.16666666666666666,14,0.24956440000096336,0.2651861000340432,0.5147505000350066,0.6420335000148043,False,near-240,42,24,14,15.0,2,up,2,2
279,2,True,1.1826678999932483,800.0,100.0,50.0,0,False,1,up,0.16666666666666666,19,0,0.3643945999792777,0.3643945999792777,0.5335879000485875,True,near-rnd2,43,4,3,2.5,3,up,1,0
280,2,True,1.4178724000230432,800.0,50.0,33.0,5,False,2,up,0.16666666666666666,26,0.10049000004073605,0.47173409996321425,0.5722241000039503,0.5785505000385456,True,near-080,43,8,6,5.0,3,up,1,0
