trial,primeCorrect,primeTime,primeDepth,stimDepth,extraDepth,driveFrames,nearToFar,diopters,direction,size,intensity,extraLatency,mainLatency,totalLatency,responseTime,correct,caseLabel,caseTrial,trialsAtStep,stepCorrect,expected,w,direction,stepsize,stepChange
1,True,2.4349929000018165,800.0,50.0,33.0,5,False,2,start,0.25,60,0.0902932999888435,1.0048494000220671,1.0951427000109106,3.363303399994038,True,near-080,1,1,1,0.625,0.5,start,16,0
2,True,1.5516556999937166,800.0,50.0,33.0,15,False,2,start,0.25,60,0.25329050002619624,0.9958569000009447,1.249147400027141,0.583150000020396,True,near-240,1,1,1,0.625,0.5,start,16,0
3,True,4.193154299980961,800.0,100.0,50.0,0,False,1,start,0.25,60,0,0.9985924999928102,0.9985924999928102,2.589131600019755,True,near-rnd2,1,1,1,0.625,0.5,start,16,0
4,True,1.379147199972067,800.0,33.0,50.0,0,False,3,start,0.25,60,0,0.982736300007673,0.982736300007673,1.387774700007867,True,near-rnd3,1,1,1,0.625,0.5,start,16,0
5,True,1.4869267999893054,800.0,50.0,33.0,10,False,2,start,0.25,60,0.17315300001064315,1.0087562999979127,1.1819093000085559,0.6193211000063457,True,near-160,1,1,1,0.625,0.5,start,16,0
6,True,1.755437300016638,800.0,50.0,33.0,0,False,2,start,0.25,60,0,0.9993051000055857,0.9993051000055857,0.6337675000249874,True,near-000,1,1,1,0.625,0.5,start,16,0
7,True,2.1370694000215735,800.0,800.0,50.0,0,False,0,start,0.25,60,0,0.9928367999964394,0.9928367999964394,0.4805279000138398,True,near-rndm,1,1,1,0.625,0.5,start,16,0
8,True,1.506883000023663,800.0,800.0,50.0,0,False,0,start,0.25,44,0,0.7310049000079744,0.7310049000079744,0.6392395999864675,True,near-rndm,2,1,1,0.625,1.0,start,16,0
9,True,1.4342275999952108,800.0,33.0,50.0,0,False,3,start,0.25,44,0,0.7237223999982234,0.7237223999982234,1.074942299979739,True,near-rnd3,2,1,1,0.625,1.0,start,16,0
10,True,2.458513599995058,800.0,50.0,33.0,10,False,2,start,0.25,44,0.17200759999104775,0.7488705000141636,0.9208781000052113,0.7970638000115287,True,near-160,2,1,1,0.625,1.0,start,16,0
11,True,2.3419922000030056,800.0,50.0,33.0,5,False,2,start,0.25,44,0.09068310001748614,0.7403944999969099,0.831077600014396,1.097623300011037,True,near-080,2,1,1,0.625,1.0,start,16,0
12,True,1.7958652999950573,800.0,50.0,33.0,0,False,2,start,0.25,44,0,0.7421260999981314,0.7421260999981314,1.068670699984068,True,near-000,2,1,1,0.625,1.0,start,16,0
13,True,2.0243148999870755,800.0,50.0,33.0,15,False,2,start,0.25,44,0.2484208999958355,0.7417662999941967,0.9901871999900322,0.49179869997897185,True,near-240,2,1,1,0.625,1.0,start,16,0
14,True,2.290270800003782,800.0,100.0,50.0,0,False,1,start,0.25,44,0,0.7391203000152018,0.7391203000152018,0.5944720999978017,True,near-rnd2,2,1,1,0.625,1.0,start,16,0
15,True,2.0684540000220295,800.0,50.0,33.0,5,False,2,start,0.25,28,0.09260689999791794,0.48348249998525716,0.5760893999831751,0.9768370999954641,True,near-080,3,1,1,0.625,1.0,start,16,0
16,True,2.578851800004486,800.0,800.0,50.0,0,False,0,start,0.25,28,0,0.47562070001731627,0.47562070001731627,1.1459889999823645,True,near-rndm,3,1,1,0.625,1.0,start,16,0
17,True,1.3773371999850497,800.0,100.0,50.0,0,False,1,start,0.25,28,0,0.4949594999779947,0.4949594999779947,1.0056021999916993,True,near-rnd2,3,1,1,0.625,1.0,start,16,0
18,True,2.028591900016181,800.0,50.0,33.0,0,False,2,start,0.25,28,0,0.4897893000161275,0.4897893000161275,1.3640700000105426,False,near-000,3,1,0,0.625,1.0,start,16,0
19,True,2.0157266999885906,800.0,50.0,33.0,15,False,2,start,0.25,28,0.24828830000478774,0.49441980000119656,0.7427081000059843,1.5255234999931417,True,near-240,3,1,1,0.625,1.0,start,16,0
20,True,1.8962100000062492,800.0,50.0,33.0,10,False,2,start,0.25,28,0.16968309998628683,0.48433000000659376,0.6540130999928806,0.6575063000200316,True,near-160,3,1,1,0.625,1.0,start,16,0
21,True,2.7666742999863345,800.0,33.0,50.0,0,False,3,start,0.25,28,0,0.4676484999945387,0.4676484999945387,2.911573600023985,False,near-rnd3,3,1,0,0.625,1.0,start,16,0
22,True,3.0154223999998067,800.0,50.0,33.0,15,False,2,start,0.25,12,0.25123990001156926,0.2400084999972023,0.49124840000877157,1.3681092000042554,True,near-240,4,1,1,0.625,0.5,start,16,0
23,True,1.6163497999950778,800.0,50.0,33.0,10,False,2,start,0.25,12,0.1713912999839522,0.23009349999483675,0.40148479997878894,1.0864367999893147,False,near-160,4,1,0,0.625,0.5,start,16,0
24,True,1.6357127999945078,800.0,800.0,50.0,0,False,0,start,0.25,12,0,0.22169560001930222,0.22169560001930222,1.4735177000111435,True,near-rndm,4,1,1,0.625,0.5,start,16,0
25,True,1.9357946999953128,800.0,50.0,33.0,5,False,2,start,0.25,12,0.09374240000033751,0.2434617000108119,0.3372041000111494,1.094321000011405,True,near-080,4,1,1,0.625,0.5,start,16,0
26,True,1.9624824000056833,800.0,50.0,33.0,0,False,2,up,0.25,44,0,0.7403105000266805,0.7403105000266805,0.6730413000041153,True,near-000,4,1,1,0.625,0.5,up,16,0
27,True,3.495529199979501,800.0,100.0,50.0,0,False,1,start,0.25,12,0,0.23026350000873208,0.23026350000873208,1.0392766000004485,True,near-rnd2,4,1,1,0.625,0.5,start,16,0
28,True,1.809499999973923,800.0,33.0,50.0,0,False,3,up,0.25,44,0,0.7296038000204135,0.7296038000204135,2.2665611999982502,True,near-rnd3,4,1,1,0.625,0.5,up,16,0
29,True,1.4712466000055429,800.0,50.0,33.0,5,False,2,start,0.25,0,0.09517200000118464,0.03800590001628734,0.13317790001747198,1.5794764000165742,False,near-080,5,1,0,0.625,0.5,start,16,0
30,True,5.755569899978582,800.0,50.0,33.0,0,False,2,up,0.25,44,0,0.7394416999886744,0.7394416999886744,0.8187467999814544,True,near-000,5,2,2,1.25,1.0,up,16,0
31,True,2.2306466000154614,800.0,800.0,50.0,0,False,0,start,0.25,0,0,0.026209200004814193,0.026209200004814193,5.762066800001776,False,near-rndm,5,1,0,0.625,0.5,start,16,0
32,True,5.032501299981959,800.0,33.0,50.0,0,False,3,up,0.25,44,0,0.7262772000103723,0.7262772000103723,1.6264392000157386,False,near-rnd3,5,2,1,1.25,1.0,up,16,0
33,True,1.2600917000090703,800.0,100.0,50.0,0,False,1,start,0.25,0,0,0.03515060001518577,0.03515060001518577,2.8619068000116386,False,near-rnd2,5,1,0,0.625,0.5,start,16,0
34,True,2.1833729000063613,800.0,50.0,33.0,15,False,2,start,0.25,0,0.24851119998493232,0.03801030002068728,0.2865215000056196,1.364324399997713,True,near-240,5,1,1,0.625,0.5,start,16,0
35,True,3.020749999996042,800.0,50.0,33.0,10,False,2,up,0.25,28,0.1719077000161633,0.49237280001398176,0.664280500030145,0.5424740000162274,True,near-160,5,1,1,0.625,0.5,up,16,0
36,True,2.4195412999833934,800.0,50.0,33.0,10,False,2,up,0.25,28,0.1712474999949336,0.5009768000163604,0.672224300011294,2.2146459000068717,False,near-160,6,2,1,1.25,1.0,up,16,0
37,True,3.1112162999925204,800.0,50.0,33.0,15,False,2,start,0.25,0,0.35753949999343604,0.03576559998327866,0.3933050999767147,1.833687500009546,True,near-240,6,1,1,0.625,0.5,start,16,0
38,True,1.9405414999928325,800.0,33.0,50.0,0,False,3,up,0.25,44,0,0.7227369999745861,0.7227369999745861,1.7876781999948435,True,near-rnd3,6,3,2,1.875,1.0,up,16,0
39,True,3.674569499999052,800.0,100.0,50.0,0,False,1,up,0.25,16,0,0.29632809999748133,0.29632809999748133,1.8775009000091814,True,near-rnd2,6,1,1,0.625,0.5,up,16,0
40,True,3.281294800020987,800.0,50.0,33.0,0,False,2,up,0.25,44,0,0.7428957000083756,0.7428957000083756,1.0412486999994144,True,near-000,6,3,3,1.875,1.0,up,16,0
41,True,1.9011570000147913,800.0,800.0,50.0,0,False,0,up,0.25,16,0,0.28723610000452027,0.28723610000452027,0.7974791000015102,True,near-rndm,6,1,1,0.625,0.5,up,16,0
42,True,1.6557917000027373,800.0,50.0,33.0,5,False,2,up,0.25,16,0.08907109999563545,0.29344519998994656,0.382516299985582,0.8206037000054494,True,near-080,6,1,1,0.625,0.5,up,16,0
43,True,2.1905288999842014,800.0,50.0,33.0,5,False,2,up,0.25,16,0.08845370000926778,0.2980816000199411,0.3865353000292089,0.5307904000219423,True,near-080,7,2,2,1.25,1.0,up,16,0
44,True,5.1869144999946,800.0,800.0,50.0,0,False,0,up,0.25,16,0,0.282518699998036,0.282518699998036,0.8128481000021566,True,near-rndm,7,2,2,1.25,1.0,up,16,0
45,True,2.3137655000027735,800.0,33.0,50.0,0,False,3,up,0.25,44,0,0.722512700012885,0.722512700012885,5.400730900000781,False,near-rnd3,7,4,2,2.5,0.5,up,16,0
46,True,1.2555996000010055,800.0,50.0,33.0,15,False,2,start,0.25,0,0.24728110001888126,0.04005380001035519,0.28733490002923645,1.6807587000075728,False,near-240,7,1,0,0.625,0.5,start,16,0
47,True,1.514375900005689,800.0,50.0,33.0,0,False,2,down,0.25,28,0,0.4860925999819301,0.4860925999819301,4.469122200011043,True,near-000,7,1,1,0.625,0.5,down,8,0
48,True,4.020334500004537,800.0,100.0,50.0,0,False,1,up,0.25,16,0,0.29809980001300573,0.29809980001300573,2.300838900002418,False,near-rnd2,7,2,1,1.25,1.0,up,16,0
49,True,2.5325364000163972,800.0,50.0,33.0,10,False,2,up,0.25,28,0.1702549000037834,0.49439750000601634,0.6646524000097997,0.6339650000154506,True,near-160,7,3,2,1.875,1.0,up,16,0
50,True,2.7138622000056785,800.0,33.0,50.0,0,False,3,up,0.25,44,0,0.7875586000154726,0.7875586000154726,3.241981900006067,False,near-rnd3,8,5,2,3.125,0.5,up,16,0
51,True,1.4791425000003073,800.0,50.0,33.0,10,False,2,up,0.25,28,0.22940419998485595,0.4867292999988422,0.7161334999836981,0.6037789999973029,True,near-160,8,4,3,2.5,0.5,up,16,0
52,True,2.3512868999969214,800.0,50.0,33.0,15,False,2,up,0.25,16,0.2531135000172071,0.30716360002406873,0.5602771000412758,1.2568862000189256,False,near-240,8,1,0,0.625,0.5,up,16,0
53,True,1.4339793999970425,800.0,100.0,50.0,0,False,1,up,0.25,16,0,0.29422780001186766,0.29422780001186766,0.9015513999911491,False,near-rnd2,8,3,1,1.875,1.0,up,16,0
54,True,1.3624572000117041,800.0,50.0,33.0,5,False,2,up,0.25,16,0.08788939999067225,0.3007528000161983,0.38864220000687055,2.472031400015112,False,near-080,8,3,2,1.875,1.0,up,16,0
55,True,1.5680980999895837,800.0,50.0,33.0,0,False,2,down,0.25,28,0,0.48725829998147674,0.48725829998147674,0.9945676999923307,False,near-000,8,2,1,1.25,1,down,8,0
56,True,2.0433303999889176,800.0,800.0,50.0,0,False,0,up,0.25,16,0,0.283720599982189,0.283720599982189,4.070930499990936,False,near-rndm,8,3,2,1.875,1.0,up,16,0
57,True,1.4569414999859873,800.0,33.0,50.0,0,False,3,up,0.25,60,0,0.9789478000020608,0.9789478000020608,4.149719300010474,True,near-rnd3,9,1,1,0.625,0.5,up,16,0
58,True,2.631317699997453,800.0,50.0,33.0,0,False,2,down,0.25,28,0,0.482890099985525,0.482890099985525,0.5582336000225041,True,near-000,9,3,2,1.875,1,down,8,0
59,True,2.8880809000111185,800.0,50.0,33.0,10,False,2,up,0.25,28,0.17364210000960156,0.489696400007233,0.6633385000168346,0.6560628000006545,True,near-160,9,5,4,3.125,0.5,up,16,0
60,True,2.4726885999843944,800.0,50.0,33.0,15,False,2,up,0.25,16,0.2535432000004221,0.3040597999934107,0.5576029999938328,0.6558044999837875,True,near-240,9,2,1,1.25,1.0,up,16,0
61,True,3.1750556999759283,800.0,800.0,50.0,0,False,0,up,0.25,16,0,0.28359519998775795,0.28359519998775795,1.4592241999926046,False,near-rndm,9,4,2,2.5,0.5,up,16,0
62,True,1.318766800017329,800.0,100.0,50.0,0,False,1,up,0.25,32,0,0.558772799995495,0.558772799995495,0.5678729999926873,True,near-rnd2,9,1,1,0.625,0.5,up,16,0
63,True,2.129423100006534,800.0,50.0,33.0,5,False,2,up,0.25,16,0.0936455000191927,0.3025902999797836,0.3962357999989763,1.7808680000016466,False,near-080,9,4,2,2.5,0.5,up,16,0
64,True,3.8407910999958403,800.0,33.0,50.0,0,False,3,up,0.25,60,0,0.9796817000024021,0.9796817000024021,0.5944275000074413,True,near-rnd3,10,2,2,1.25,1.0,up,16,0
65,True,1.85484539999743,800.0,50.0,33.0,10,False,2,down,0.25,12,0.17468209998332895,0.24484329999540932,0.4195253999787383,0.9752980999764986,False,near-160,10,1,0,0.625,0.5,down,8,0
66,True,3.2085546999878716,800.0,50.0,33.0,5,False,2,up,0.25,16,0.0924403999815695,0.30245519999880344,0.39489559998037294,0.8018550999986473,False,near-080,10,5,2,3.125,0.5,up,16,0
67,True,3.32155920000514,800.0,100.0,50.0,0,False,1,up,0.25,32,0,0.5601727000030223,0.5601727000030223,0.5116388000024017,True,near-rnd2,10,2,2,1.25,1.0,up,16,0
68,True,4.5974296999920625,800.0,50.0,33.0,15,False,2,up,0.25,16,0.25009770001634024,0.30294019999564625,0.5530379000119865,2.70722179999575,False,near-240,10,3,1,1.875,1.0,up,16,0
69,True,1.5798816999886185,800.0,50.0,33.0,0,False,2,down,0.25,28,0,0.4832755000097677,0.4832755000097677,0.8593582999892533,True,near-000,10,4,3,2.5,1,down,8,0
70,True,1.431274200003827,800.0,800.0,50.0,0,False,0,up,0.25,16,0,0.2874158000049647,0.2874158000049647,0.9839297999860719,True,near-rndm,10,5,3,3.125,0.5,up,16,0
71,True,1.1841595000005327,800.0,50.0,33.0,10,False,2,down,0.25,12,0.16761030000634491,0.24150810000719503,0.40911840001353994,0.945617499994114,True,near-160,11,2,1,1.25,1,down,8,0
72,True,1.925735500000883,800.0,33.0,50.0,0,False,3,up,0.25,60,0,0.9836854000168387,0.9836854000168387,0.9010406000015792,False,near-rnd3,11,3,2,1.875,1.0,up,16,0
73,True,2.638773000013316,800.0,100.0,50.0,0,False,1,up,0.25,32,0,0.5537987000134308,0.5537987000134308,0.5071037999878172,True,near-rnd2,11,3,3,1.875,1.0,up,16,0
74,True,1.6664210000017192,800.0,50.0,33.0,0,False,2,down,0.25,28,0,0.4848603999998886,0.4848603999998886,0.8651995999971405,False,near-000,11,5,3,3.125,1,down,8,0
75,True,3.4569667000032496,800.0,50.0,33.0,5,False,2,up,0.25,32,0.17536009999457747,0.5595254999934696,0.734885599988047,0.5170254000113346,True,near-080,11,1,1,0.625,0.5,up,16,0
76,True,2.1201561000198126,800.0,50.0,33.0,15,False,2,up,0.25,32,0.24999270000262186,0.5630255999858491,0.813018299988471,0.49825189998955466,True,near-240,11,1,1,0.625,0.5,up,16,0
77,True,1.5707703999942169,800.0,800.0,50.0,0,False,0,up,0.25,16,0,0.283364500006428,0.283364500006428,0.757194999983767,True,near-rndm,11,6,4,3.75,0.5,up,16,0
78,True,1.7272003999969456,800.0,50.0,33.0,15,False,2,up,0.25,32,0.2510134000040125,0.5589059999911115,0.809919399995124,0.5395183999789879,True,near-240,12,2,2,1.25,1.0,up,16,0
79,True,2.4129288000112865,800.0,50.0,33.0,0,False,2,down,0.25,28,0,0.4840330999868456,0.4840330999868456,1.414533199975267,True,near-000,12,6,4,3.75,1,down,8,0
80,True,2.3676794999919366,800.0,33.0,50.0,0,False,3,up,0.25,60,0,0.9814105999830645,0.9814105999830645,0.20522979999077506,False,near-rnd3,12,4,2,2.5,0.5,up,16,0
81,True,1.8586349999823142,800.0,100.0,50.0,0,False,1,down,0.25,16,0,0.2973906999977771,0.2973906999977771,0.6811837000132073,True,near-rnd2,12,1,1,0.625,0.5,down,8,0
82,True,1.6951567999785766,800.0,50.0,33.0,10,False,2,down,0.25,12,0.17286190000595525,0.23436569998739287,0.4072275999933481,1.171950599993579,False,near-160,12,3,1,1.875,1,down,8,0
83,True,5.5502863000147045,800.0,800.0,50.0,0,False,0,up,0.25,16,0,0.2872864000091795,0.2872864000091795,0.4289271000016015,True,near-rndm,12,7,5,4.375,0.5,up,16,0
84,True,1.5820617999997921,800.0,50.0,33.0,5,False,2,up,0.25,32,0.09593930002301931,0.5624066000164021,0.6583459000394214,0.4643431000004057,True,near-080,12,2,2,1.25,1.0,up,16,0
85,True,3.905348500004038,800.0,50.0,33.0,0,False,2,down,0.25,28,0,0.48932609998155385,0.48932609998155385,0.5451353999960702,True,near-000,13,7,5,4.375,1,down,8,0
86,True,4.3520642000075895,800.0,50.0,33.0,5,False,2,up,0.25,32,0.09417930000927299,0.5641093000012916,0.6582886000105646,0.4951448999927379,True,near-080,13,3,3,1.875,1.0,up,16,0
87,True,2.6049376000009943,800.0,50.0,33.0,10,False,2,down,0.25,12,0.17006219999166206,0.23577829997520894,0.405840499966871,3.474657599988859,False,near-160,13,4,1,2.5,1,down,8,0
88,True,1.2832470999856014,800.0,50.0,33.0,15,False,2,up,0.25,32,0.24951369999325834,0.549512900004629,0.7990265999978874,0.4011410000093747,True,near-240,13,3,3,1.875,1.0,up,16,0
89,True,2.9048295999818947,800.0,100.0,50.0,0,False,1,down,0.25,16,0,0.29468890000134706,0.29468890000134706,0.824626099987654,True,near-rnd2,13,2,2,1.25,1,down,8,0
90,True,1.984167399990838,800.0,33.0,50.0,0,False,3,up,0.25,60,0,0.9814243000000715,0.9814243000000715,1.0032274999830406,True,near-rnd3,13,5,3,3.125,0.5,up,16,0
91,True,1.6560466999944765,800.0,800.0,50.0,0,False,0,down,0.25,0,0,0.023158399999374524,0.023158399999374524,1.883249500009697,False,near-rndm,13,1,0,0.625,0.5,down,8,0
92,True,1.8792004999995697,800.0,33.0,50.0,0,False,3,up,0.25,60,0,0.9853602999937721,0.9853602999937721,0.20512869997764938,True,near-rnd3,14,6,4,3.75,0.5,up,16,0
93,True,2.6831773000012618,800.0,50.0,33.0,5,False,2,down,0.25,16,0.09140509998542257,0.3012379000138026,0.39264299999922514,0.6418760000087786,True,near-080,14,1,1,0.625,0.5,down,8,0
94,False,2.864428900007624,800.0,100.0,50.0,0,False,1,down,0.25,16,0,0.29414869999163784,0.29414869999163784,0.638719399983529,True,near-rnd2,14,3,3,1.875,1,down,8,0
95,True,2.322097899974324,800.0,50.0,33.0,10,False,2,up,0.25,20,0.16744929997366853,0.37097620000713505,0.5384254999808036,0.49201620000530966,True,near-160,14,1,1,0.625,1,up,4,0
96,True,1.9604645999788772,800.0,800.0,50.0,0,False,0,down,0.25,0,0,0.027643500012345612,0.027643500012345612,1.635419099999126,False,near-rndm,14,2,0,1.25,1,down,8,0
97,True,2.885135899996385,800.0,50.0,33.0,0,False,2,down,0.25,28,0,0.48695230000885203,0.48695230000885203,0.6992934999871068,False,near-000,14,8,5,5.0,1,down,8,0
98,True,1.8266230000008363,800.0,50.0,33.0,15,False,2,down,0.25,16,0.24794849997851998,0.30182270001387224,0.5497711999923922,1.951710399996955,False,near-240,14,1,0,0.625,0.5,down,8,0
99,True,2.8648675000004005,800.0,50.0,33.0,5,False,2,down,0.25,16,0.09215149999363348,0.29450750001706183,0.3866590000106953,0.8671295999956783,False,near-080,15,2,1,1.25,1,down,8,0
100,True,1.5259096999943722,800.0,50.0,33.0,0,False,2,down,0.25,28,0,0.4856016000267118,0.4856016000267118,0.5645616999827325,False,near-000,15,9,5,5.625,1,down,8,1
101,True,1.6517251000041142,800.0,50.0,33.0,15,False,2,down,0.25,16,0.25237410000409,0.3741901000030339,0.6265642000071239,0.5903746999974828,True,near-240,15,2,1,1.25,1,down,8,0
102,True,1.6050112000084482,800.0,800.0,50.0,0,False,0,up,0.25,8,0,0.16155869999784045,0.16155869999784045,0.6725375000096392,True,near-rndm,15,1,1,0.625,1,up,4,0
103,True,1.3883145999861881,800.0,100.0,50.0,0,False,1,down,0.25,16,0,0.30151700001442805,0.30151700001442805,0.747579399991082,True,near-rnd2,14,3,3,1.875,1,down,8,0
104,True,2.4407479999936186,800.0,50.0,33.0,10,False,2,up,0.25,20,0.17188150002039038,0.36293429997749627,0.5348157999978866,0.42917499999748543,False,near-160,15,2,1,1.25,1,up,4,0
105,True,2.0677921999886166,800.0,33.0,50.0,0,False,3,up,0.25,60,0,0.9842111000034492,0.9842111000034492,2.002833999984432,True,near-rnd3,15,7,5,4.375,0.5,up,16,0
106,True,1.8742509000003338,800.0,50.0,33.0,0,False,2,down,0.25,28,0,0.4882381999923382,0.4882381999923382,0.7657991999876685,True,near-000,16,10,6,6.25,1,down,8,1
107,True,2.511848399997689,800.0,50.0,33.0,5,False,2,down,0.25,16,0.17911979998461902,0.2976255999819841,0.47674539996660315,1.2825466999784112,False,near-080,16,3,1,1.875,1,down,8,0
108,True,1.9053738999937195,800.0,33.0,50.0,0,False,3,down,0.25,44,0,0.7263108000042848,0.7263108000042848,0.8978683000023011,True,near-rnd3,16,1,1,0.625,0.5,down,8,0
109,True,4.857467699999688,800.0,800.0,50.0,0,False,0,up,0.25,8,0,0.15388840000377968,0.15388840000377968,0.6316167000040878,True,near-rndm,16,2,2,1.25,1,up,4,0
110,True,1.197383999999147,800.0,50.0,33.0,10,False,2,up,0.25,20,0.16727249999530613,0.359465600020485,0.5267381000157911,0.5184378999983892,True,near-160,16,3,2,1.875,1,up,4,0
111,True,1.9104960999975447,800.0,50.0,33.0,15,False,2,down,0.25,16,0.25328959999023937,0.3057002000277862,0.5589898000180256,0.6870788999949582,False,near-240,16,3,1,1.875,1,down,8,0
112,True,2.0408427999936976,800.0,100.0,50.0,0,False,1,down,0.25,8,0,0.1713369000062812,0.1713369000062812,0.7041590000153519,True,near-rnd2,15,1,1,0.625,1,down,8,0
113,True,1.9688216999929864,800.0,50.0,33.0,15,False,2,down,0.25,16,0.25204789999406785,0.30537570000160486,0.5574235999956727,0.7341958000033628,False,near-240,17,4,1,2.5,1,down,8,0
114,True,1.9260037000058219,800.0,50.0,33.0,5,False,2,down,0.25,16,0.08949899999424815,0.442708800022956,0.5322078000172041,3.9246395000081975,False,near-080,17,4,1,2.5,1,down,8,0
115,True,1.544074500008719,800.0,33.0,50.0,0,False,3,down,0.25,44,0,0.7272948999889195,0.7272948999889195,1.2204074999899603,False,near-rnd3,17,2,1,1.25,1,down,8,0
116,True,1.9055343999934848,800.0,100.0,50.0,0,False,1,down,0.25,8,0,0.1690126000030432,0.1690126000030432,0.7205786999838892,True,near-rnd2,16,2,2,1.25,1,down,8,0
117,True,2.739989499998046,800.0,800.0,50.0,0,False,0,up,0.25,8,0,0.15669730000081472,0.15669730000081472,0.5643709000141826,True,near-rndm,17,3,3,1.875,1,up,4,0
118,True,1.1953369000111707,800.0,50.0,33.0,0,False,2,down,0.25,28,0,0.49270020000403747,0.49270020000403747,0.6302995000150986,True,near-000,17,11,7,6.875,1,down,8,1
119,True,3.992002599989064,800.0,50.0,33.0,10,False,2,up,0.25,20,0.17141699997591786,0.3642710999993142,0.535688099975232,0.5313471000117715,True,near-160,17,4,3,2.5,1,up,4,0
120,True,1.9710912000155076,800.0,800.0,50.0,0,False,0,down,0.25,4,0,0.0873526000068523,0.0873526000068523,0.6682867000054102,True,near-rndm,18,1,1,0.625,1,down,2,0
121,True,2.0886312999937218,800.0,50.0,33.0,5,False,2,up,0.25,24,0.09332340001128614,0.4223518999933731,0.5156753000046592,0.5192672999983188,True,near-080,18,1,1,0.625,1,up,4,0
122,True,1.3493044000060763,800.0,50.0,33.0,15,False,2,up,0.25,24,0.2512691000010818,0.4223501000087708,0.6736192000098526,1.1221252999966964,False,near-240,18,1,0,0.625,1,up,4,0
123,True,1.7118044000235386,800.0,50.0,33.0,10,False,2,up,0.25,20,0.16837679999298416,0.3641300000017509,0.532506799994735,0.34158819998265244,False,near-160,18,5,3,3.125,1,up,4,0
124,True,1.5895025999925565,800.0,50.0,33.0,0,False,2,down,0.25,28,0,0.48631619999650866,0.48631619999650866,1.5013303000014275,False,near-000,18,12,7,7.5,1,down,8,1
125,True,3.367659800016554,800.0,33.0,50.0,0,False,3,down,0.25,44,0,0.7257419999805279,0.7257419999805279,0.48072819999651983,False,near-rnd3,18,3,1,1.875,1,down,8,0
126,True,1.7779741000267677,800.0,100.0,50.0,0,False,1,down,0.25,8,0,0.1667543000075966,0.1667543000075966,0.8528341999917757,False,near-rnd2,17,3,2,1.875,1,down,8,0
127,True,1.763683500001207,800.0,50.0,33.0,5,False,2,up,0.25,24,0.08897690000594594,0.4231586999958381,0.512135600001784,1.0221639000228606,False,near-080,19,2,1,1.25,1,up,4,0
128,True,2.2045783000066876,800.0,100.0,50.0,0,False,1,down,0.25,8,0,0.16216800000984222,0.16216800000984222,0.6906513000139967,True,near-rnd2,18,4,3,2.5,1,down,8,0
129,True,2.461901599977864,800.0,800.0,50.0,0,False,0,down,0.25,4,0,0.09217180000268854,0.09217180000268854,0.5694347000098787,True,near-rndm,19,2,2,1.25,2,down,2,0
130,True,1.5857140999869443,800.0,50.0,33.0,15,False,2,up,0.25,24,0.25015520001761615,0.4309456000046339,0.68110080002225,0.3204890000051819,True,near-240,19,2,1,1.25,1,up,4,0
131,True,1.814835099998163,800.0,50.0,33.0,10,False,2,up,0.25,20,0.17298569998820312,0.36401479999767616,0.5370004999858793,0.36310829999274574,False,near-160,19,6,3,3.75,1,up,4,0
132,True,2.7453335000027437,800.0,33.0,50.0,0,False,3,down,0.25,44,0,0.7268553000176325,0.7268553000176325,0.5312667999824043,False,near-rnd3,19,4,1,2.5,1,down,8,0
133,True,1.7455654999939725,800.0,50.0,33.0,0,False,2,down,0.25,28,0,0.4876887999998871,0.4876887999998871,0.31367730000056326,True,near-000,19,13,8,8.125,1,down,8,1
134,True,1.7310303999984171,800.0,50.0,33.0,15,False,2,up,0.25,24,0.24620779999531806,0.43433429999276996,0.680542099988088,0.18620509997708723,False,near-240,20,3,1,1.875,1,up,4,0
135,True,1.4298558000009507,800.0,50.0,33.0,10,False,2,up,0.25,20,0.26031039998633787,0.3652322000125423,0.6255425999988802,2.435886199993547,False,near-160,20,7,3,4.375,1,up,4,0
136,True,1.3162324000149965,800.0,33.0,50.0,0,False,3,up,0.25,52,0,0.8493331000208855,0.8493331000208855,0.21542930000578053,True,near-rnd3,20,1,1,0.625,1,up,4,0
137,True,1.5873318999947514,800.0,50.0,33.0,5,False,2,up,0.25,24,0.08681060001254082,0.43255599998519756,0.5193665999977384,1.1261560999846552,False,near-080,20,3,1,1.875,1,up,4,0
138,True,2.9620853000087664,800.0,800.0,50.0,0,False,0,down,0.25,4,0,0.09092420001979917,0.09092420001979917,0.575893500004895,True,near-rndm,20,3,3,1.875,2,down,2,0
139,True,2.0596853000170086,800.0,50.0,33.0,0,False,2,down,0.25,28,0,0.4821824000100605,0.4821824000100605,1.1602894999959972,True,near-000,20,14,9,8.75,1,down,8,1
140,True,2.644278000021586,800.0,100.0,50.0,0,False,1,down,0.25,8,0,0.16151330000138842,0.16151330000138842,1.3043602000107057,True,near-rnd2,19,5,4,3.125,1,down,8,0
141,True,1.9207322000002023,800.0,33.0,50.0,0,False,3,up,0.25,52,0,0.8538460999843664,0.8538460999843664,1.0976737999881152,False,near-rnd3,21,2,1,1.25,1,up,4,0
142,True,1.636297699995339,800.0,50.0,33.0,5,False,2,up,0.25,24,0.09218149998923764,0.41955520000192337,0.511736699991161,0.40348209999501705,True,near-080,21,4,2,2.5,1,up,4,0
143,True,1.8552391999983229,800.0,50.0,33.0,15,False,2,up,0.25,24,0.24817970002186485,0.4247896999877412,0.672969400009606,1.359412699996028,False,near-240,21,4,1,2.5,1,up,4,0
144,True,1.5985499999951571,800.0,50.0,33.0,0,False,2,down,0.25,28,0,0.48608070000773296,0.48608070000773296,1.0011016999778803,False,near-000,21,15,9,9.375,1,down,8,1
145,True,1.7288203999924008,800.0,100.0,50.0,0,False,1,down,0.25,8,0,0.16907450000871904,0.16907450000871904,0.8013556000078097,True,near-rnd2,20,6,5,3.75,1,down,8,0
146,True,1.4516071999969427,800.0,800.0,50.0,0,False,0,down,0.25,4,0,0.0875884999986738,0.0875884999986738,0.9051123000099324,True,near-rndm,21,4,4,2.5,2,down,2,0
147,True,6.25790880000568,800.0,50.0,33.0,10,False,2,up,0.25,24,0.17241520000970922,0.43008829999598674,0.602503500005696,0.4933690999750979,False,near-160,21,1,0,0.625,1,up,4,0
148,True,1.1606982999946922,800.0,33.0,50.0,0,False,3,up,0.25,52,0,0.8523057000129484,0.8523057000129484,0.18579719998524524,True,near-rnd3,22,3,2,1.875,1,up,4,0
149,True,1.1746755999920424,800.0,100.0,50.0,0,False,1,down,0.25,0,0,0.03548489999957383,0.03548489999957383,0.9552352000027895,False,near-rnd2,21,1,0,0.625,1,down,8,0
150,True,1.5356006000074558,800.0,50.0,33.0,5,False,2,up,0.25,24,0.08642000000691041,0.42645420000189915,0.5128742000088096,0.26695800002198666,False,near-080,22,5,2,3.125,1,up,4,0
151,True,2.1692024000221863,800.0,50.0,33.0,0,False,2,down,0.25,28,0,0.48868270000093617,0.48868270000093617,0.7354506000119727,True,near-000,22,16,10,10.0,1,down,8,1
152,True,1.1100945000071079,800.0,50.0,33.0,10,False,2,up,0.25,24,0.16625060001388192,0.42737839999608696,0.5936290000099689,0.31757610000204295,True,near-160,22,2,1,1.25,1,up,4,0
153,True,1.1554419999883976,800.0,800.0,50.0,0,False,0,down,0.25,4,0,0.09474849997786805,0.09474849997786805,0.6000036999757867,True,near-rndm,22,5,5,3.125,2,down,2,0
154,False,1.0940413000062108,800.0,50.0,33.0,15,False,2,up,0.25,28,0.2500154000008479,0.49362039999687113,0.743635799997719,0.27923839999129996,True,near-240,22,1,1,0.625,1,up,4,0
155,True,1.5081441999936942,800.0,100.0,50.0,0,False,1,down,0.25,0,0,0.03558490000432357,0.03558490000432357,1.4543726999836508,False,near-rnd2,22,2,0,1.25,1,down,8,0
156,True,2.532676300004823,800.0,50.0,33.0,15,False,2,up,0.25,28,0.2510480000055395,0.48809900000924245,0.739147000014782,0.0769952000118792,True,near-240,22,1,1,0.625,1,up,4,0
157,True,2.1131579000211786,800.0,50.0,33.0,0,False,2,down,0.25,28,0,0.4895097000116948,0.4895097000116948,0.4013944000180345,True,near-000,23,17,11,10.625,1,down,8,2
158,True,1.4530335000017658,800.0,33.0,50.0,0,False,3,up,0.25,52,0,0.8543700000154786,0.8543700000154786,0.2757063999888487,True,near-rnd3,23,4,3,2.5,1,up,4,0
159,False,1.3990863999933936,800.0,800.0,50.0,0,False,0,down,0.25,4,0,0.0930246000061743,0.0930246000061743,0.9480100000218954,True,near-rndm,23,6,6,3.75,2,down,2,0
160,True,1.6653488000156358,800.0,50.0,33.0,10,False,2,up,0.25,24,0.17043179998290725,0.42132150000543334,0.5917532999883406,1.0571062999952119,True,near-160,23,3,2,1.875,1,up,4,0
161,True,1.450935099972412,800.0,50.0,33.0,5,False,2,up,0.25,28,0.0920005000079982,0.48564910001005046,0.5776496000180487,0.7324359999911394,True,near-080,23,1,1,0.625,1,up,4,0
162,True,1.7836738000041805,800.0,50.0,33.0,15,False,2,up,0.25,28,0.2500698000076227,0.48805499999434687,0.7381248000019696,0.4048043999937363,False,near-240,23,2,1,1.25,1,up,4,0
163,True,2.2298445999913383,800.0,50.0,33.0,10,False,2,up,0.25,24,0.16831470001488924,0.41789650000282563,0.5862112000177149,0.23281129999668337,True,near-160,24,4,3,2.5,1,up,4,0
164,True,2.080050199991092,800.0,800.0,50.0,0,False,0,down,0.25,4,0,0.08980919999885373,0.08980919999885373,0.5216340999759268,True,near-rndm,23,6,6,3.75,2,down,2,0
165,True,1.297452999977395,800.0,50.0,33.0,0,False,2,down,0.25,28,0,0.48197090000030585,0.48197090000030585,0.5991157999960706,False,near-000,24,18,11,11.25,1,down,8,2
166,True,1.5104608999972697,800.0,33.0,50.0,0,False,3,up,0.25,52,0,0.853147199988598,0.853147199988598,0.7520800000056624,True,near-rnd3,24,5,4,3.125,1,up,4,0
167,True,1.5669700000144076,800.0,50.0,33.0,5,False,2,up,0.25,28,0.0898923999920953,0.49018100000103004,0.5800733999931253,0.33328390002134256,True,near-080,24,2,2,1.25,1,up,4,0
168,True,1.5406304000061937,800.0,100.0,50.0,0,False,1,up,0.25,8,0,0.16265959999873303,0.16265959999873303,0.7238091000181157,True,near-rnd2,23,1,1,0.625,1,up,4,0
169,True,3.0519816000014544,800.0,50.0,33.0,5,False,2,up,0.25,28,0.09064460001536645,0.48490949999541044,0.5755541000107769,0.032600300008198246,False,near-080,25,3,2,1.875,1,up,4,0
170,True,5.008748300024308,800.0,33.0,50.0,0,False,3,up,0.25,52,0,0.8511162000067998,0.8511162000067998,0.41091239999514073,True,near-rnd3,25,6,5,3.75,1,up,4,0
171,True,3.7218464000034146,800.0,800.0,50.0,0,False,0,down,0.25,2,0,0.055636300006881356,0.055636300006881356,0.60303660001955,True,near-rndm,24,1,1,0.625,2,down,2,0
172,True,1.525758699979633,800.0,100.0,50.0,0,False,1,up,0.25,8,0,0.16298389999428764,0.16298389999428764,0.6543239000020549,True,near-rnd2,24,2,2,1.25,1,up,4,0
173,True,1.59236080001574,800.0,50.0,33.0,15,False,2,up,0.25,28,0.25332729998626746,0.4927763000014238,0.7461035999876913,0.3494994000066072,False,near-240,24,3,1,1.875,1,up,4,0
174,True,2.9236302000063006,800.0,50.0,33.0,0,False,2,down,0.25,28,0,0.4815253999840934,0.4815253999840934,0.8107436999853235,False,near-000,25,19,11,11.875,1,down,8,2
175,True,3.2242591999820434,800.0,50.0,33.0,10,False,2,up,0.25,24,0.17875020002247766,0.4313519000133965,0.6101021000358742,0.2700958999921568,True,near-160,25,5,4,3.125,1,up,4,0
176,True,1.2286797999986447,800.0,50.0,33.0,15,False,2,up,0.25,28,0.25268530001631007,0.4896708000160288,0.7423561000323389,0.16307479998795316,False,near-240,25,4,1,2.5,1,up,4,0
177,True,1.333380700001726,800.0,50.0,33.0,5,False,2,up,0.25,28,0.09085639999830164,0.486977399996249,0.5778337999945506,0.1336652000027243,True,near-080,26,4,3,2.5,1,up,4,0
178,True,1.1224634000100195,800.0,50.0,33.0,0,False,2,down,0.25,28,0,0.48396990000037476,0.48396990000037476,0.9710534999903757,False,near-000,26,20,11,12.5,1,down,8,2
179,True,1.4199078000092413,800.0,800.0,50.0,0,False,0,down,0.25,2,0,0.06204410002101213,0.06204410002101213,0.6669095999968704,True,near-rndm,25,2,2,1.25,2,down,2,0
180,True,1.7062769000185654,800.0,50.0,33.0,10,False,2,up,0.25,24,0.17163399999844842,0.4236275999865029,0.5952615999849513,0.23409739998169243,True,near-160,26,6,5,3.75,1,up,4,0
181,True,3.633026299998164,800.0,100.0,50.0,0,False,1,up,0.25,8,0,0.17141730000730604,0.17141730000730604,0.5663163000135683,True,near-rnd2,25,3,3,1.875,1,up,4,0
182,True,1.5169799999857787,800.0,33.0,50.0,0,False,3,down,0.25,48,0,0.7894851999881212,0.7894851999881212,1.2487364999833517,False,near-rnd3,26,1,0,0.625,1,down,2,0
183,True,1.202511699986644,800.0,50.0,33.0,10,False,2,down,0.25,20,0.172961900010705,0.3638367000094149,0.5367986000201199,1.148512000014307,True,near-160,27,1,1,0.625,1,down,2,0
184,True,1.7548819000076037,800.0,33.0,50.0,0,False,3,down,0.25,48,0,0.786614999989979,0.786614999989979,6.316562799998792,True,near-rnd3,27,2,1,1.25,2,down,2,0
185,True,5.897622500022408,800.0,50.0,33.0,5,False,2,up,0.25,28,0.08809520001523197,0.4846446000155993,0.5727398000308312,0.3735746000020299,True,near-080,27,5,4,3.125,1,up,4,0
186,True,1.3845172000001185,800.0,800.0,50.0,0,False,0,down,0.25,2,0,0.0564029999950435,0.0564029999950435,0.6508097999903839,True,near-rndm,26,3,3,1.875,2,down,2,0
187,True,1.261238900013268,800.0,50.0,33.0,0,False,2,up,0.25,30,0,0.5212386999919545,0.5212386999919545,0.527213200024562,False,near-000,27,1,0,0.625,1,up,1,0
188,True,5.202624900004594,800.0,100.0,50.0,0,False,1,down,0.25,4,0,0.10050010000122711,0.10050010000122711,0.6503612000087742,False,near-rnd2,26,1,0,0.625,1,down,2,0
189,True,1.404071600001771,800.0,50.0,33.0,15,False,2,up,0.25,32,0.2502029000024777,0.5489114000229165,0.7991143000253942,0.08232240000506863,True,near-240,26,1,1,0.625,1,up,4,0
190,True,2.247675899998285,800.0,50.0,33.0,15,False,2,up,0.25,32,0.25030809998861514,0.5546115000033751,0.8049195999919903,0.7197690999892075,False,near-240,27,2,1,1.25,1,up,4,0
191,True,1.557252200000221,800.0,50.0,33.0,5,False,2,up,0.25,28,0.08922289998736233,0.49177579997922294,0.5809986999665853,0.1846285999927204,False,near-080,28,6,4,3.75,1,up,4,0
192,True,1.1843377999903169,800.0,50.0,33.0,0,False,2,up,0.25,30,0,0.5185689000063576,0.5185689000063576,0.5464468999998644,True,near-000,28,2,1,1.25,2,up,1,0
193,True,1.622928700002376,800.0,100.0,50.0,0,False,1,down,0.25,4,0,0.10119840002153069,0.10119840002153069,0.5894388000015169,True,near-rnd2,27,2,1,1.25,2,down,2,0
194,True,3.394766899989918,800.0,800.0,50.0,0,False,0,down,0.25,2,0,0.06469350002589636,0.06469350002589636,0.5068169000151101,True,near-rndm,27,4,4,2.5,2,down,2,0
195,True,2.020208799978718,800.0,33.0,50.0,0,False,3,down,0.25,48,0,0.7897436999774072,0.7897436999774072,0.24627439997857437,False,near-rnd3,28,3,1,1.875,2,down,2,0
196,True,1.7119632000103593,800.0,50.0,33.0,10,False,2,down,0.25,20,0.1681934999942314,0.37021250001271255,0.5384060000069439,0.5028189000149723,True,near-160,28,2,2,1.25,2,down,2,0
197,True,2.207655900012469,800.0,100.0,50.0,0,False,1,down,0.25,4,0,0.10567809999338351,0.10567809999338351,0.8346890000102576,True,near-rnd2,28,3,2,1.875,2,down,2,0
198,True,1.5332304000039585,800.0,800.0,50.0,0,False,0,down,0.25,2,0,0.062325699982466176,0.062325699982466176,0.6606838000006974,True,near-rndm,28,5,5,3.125,2,down,2,0
199,True,1.4931367000099272,800.0,50.0,33.0,0,False,2,up,0.25,30,0,0.510285099997418,0.510285099997418,0.4153316000010818,True,near-000,29,3,2,1.875,2,up,1,0
200,True,4.0162003000150435,800.0,50.0,33.0,5,False,2,up,0.25,28,0.0916750000033062,0.48218079999787733,0.5738558000011835,0.22149890000582673,False,near-080,29,7,4,4.375,1,up,4,0
201,True,2.3445257999992464,800.0,50.0,33.0,15,False,2,up,0.25,32,0.25063980001141317,0.5522045000107028,0.8028443000221159,0.23557270001037978,False,near-240,28,3,1,1.875,1,up,4,0
202,True,1.2990670000144746,800.0,50.0,33.0,10,False,2,down,0.25,20,0.22780380002222955,0.3592652000079397,0.5870690000301693,0.5264600999944378,False,near-160,29,3,2,1.875,2,down,2,0
203,True,4.260265699995216,800.0,33.0,50.0,0,False,3,down,0.25,48,0,0.7875693999812938,0.7875693999812938,0.5726414000091609,True,near-rnd3,29,4,2,2.5,2,down,2,0
204,True,2.4434322999732103,800.0,800.0,50.0,0,False,0,down,0.25,2,0,0.06326359999366105,0.06326359999366105,0.6071684999915306,True,near-rndm,29,6,6,3.75,2,down,2,0
205,True,1.8079521999752615,800.0,50.0,33.0,5,False,2,up,0.25,28,0.08898840000620112,0.4934452000015881,0.5824336000077892,1.7927829999825917,True,near-080,30,8,5,5.0,1,up,4,0
206,True,3.8182176000264008,800.0,33.0,50.0,0,False,3,down,0.25,48,0,0.7880142999929376,0.7880142999929376,4.4965214999974705,False,near-rnd3,30,5,2,3.125,2,down,2,0
207,True,1.5963291999942157,800.0,50.0,33.0,0,False,2,up,0.25,30,0,0.5125293000019155,0.5125293000019155,0.6928084999963176,False,near-000,30,4,2,2.5,2,up,1,0
208,True,2.035894099972211,800.0,50.0,33.0,15,False,2,up,0.25,32,0.2514084999857005,0.554050400009146,0.8054588999948464,7.057272300007753,False,near-240,29,4,1,2.5,1,up,4,0
209,True,4.165749100007815,800.0,50.0,33.0,10,False,2,down,0.25,20,0.16843019999214448,0.3649176000035368,0.5333477999956813,1.0912952999933623,False,near-160,30,4,2,2.5,2,down,2,0
210,True,1.9672598000033759,800.0,100.0,50.0,0,False,1,down,0.25,4,0,0.10593140000128187,0.10593140000128187,0.9890678999945521,True,near-rnd2,29,4,3,2.5,2,down,2,0
211,True,3.1343675999960396,800.0,50.0,33.0,15,False,2,up,0.25,36,0.24791839998215437,0.6134525000234134,0.8613709000055678,0.3795094999950379,True,near-240,30,1,1,0.625,1,up,8,0
212,True,2.2452811999828555,800.0,50.0,33.0,0,False,2,up,0.25,30,0,0.5204197999846656,0.5204197999846656,0.5564722999988589,True,near-000,31,5,3,3.125,2,up,1,0
213,True,2.132275900017703,800.0,50.0,33.0,10,False,2,down,0.25,20,0.1875045000051614,0.3580352999852039,0.5455397999903653,0.4988549999834504,True,near-160,31,5,3,3.125,2,down,2,0
214,True,1.5203455000009853,800.0,33.0,50.0,0,False,3,down,0.25,48,0,0.7905897000164259,0.7905897000164259,0.42466910000075586,False,near-rnd3,31,6,2,3.75,2,down,2,0
215,True,1.9562456000130624,800.0,800.0,50.0,0,False,0,down,0.25,0,0,0.022390800004359335,0.022390800004359335,1.5465833000198472,True,near-rndm,30,1,1,0.625,2,down,2,0
216,True,2.7457006000040565,800.0,100.0,50.0,0,False,1,down,0.25,4,0,0.10296029999153689,0.10296029999153689,0.8501900999981444,True,near-rnd2,30,5,4,3.125,2,down,2,0
217,True,1.7270930999948177,800.0,50.0,33.0,5,False,2,up,0.25,28,0.08622870000544935,0.49408399997628294,0.5803126999817323,0.5638296999968588,True,near-080,31,9,6,5.625,1,up,4,1
218,True,1.9247917999746278,800.0,50.0,33.0,15,False,2,up,0.25,36,0.24676280000130646,0.6251239999837708,0.8718867999850772,0.3069523999874946,True,near-240,31,2,2,1.25,1,up,8,0
219,True,1.7931242999911774,800.0,800.0,50.0,0,False,0,down,0.25,0,0,0.02574889999232255,0.02574889999232255,0.8164599000010639,True,near-rndm,31,2,2,1.25,2,down,2,0
220,True,1.4280773999926168,800.0,50.0,33.0,5,False,2,up,0.25,28,0.08623640000587329,0.48819709999952465,0.574433500005398,0.37940309999976307,True,near-080,32,10,7,6.25,1,up,4,1
221,True,2.0209819999872707,800.0,33.0,50.0,0,False,3,down,0.25,48,0,0.8511678000213578,0.8511678000213578,1.3756213999877218,False,near-rnd3,32,7,2,4.375,2,down,2,0
222,True,1.91022309998516,800.0,50.0,33.0,10,False,2,down,0.25,20,0.17392619999009185,0.3637555999739561,0.537681799964048,0.7139883000054397,False,near-160,32,6,3,3.75,2,down,2,0
223,True,1.5428448999882676,800.0,50.0,33.0,0,False,2,up,0.25,30,0,0.5214520999870729,0.5214520999870729,0.5601213999907486,False,near-000,32,6,3,3.75,2,up,1,0
224,True,1.6931957000051625,800.0,100.0,50.0,0,False,1,down,0.25,4,0,0.10503780000726692,0.10503780000726692,0.9380127000040375,True,near-rnd2,31,6,5,3.75,2,down,2,0
225,True,2.675636400002986,800.0,50.0,33.0,15,False,2,up,0.25,36,0.24889260000782087,0.6196071000013035,0.8684997000091244,0.8126516000193078,False,near-240,32,3,2,1.875,1,up,8,0
226,True,1.5786912000039592,800.0,50.0,33.0,10,False,2,down,0.25,20,0.17560069999308325,0.3664209000125993,0.5420216000056826,0.8202452000114135,True,near-160,33,7,4,4.375,2,down,2,0
227,True,1.5753619000024628,800.0,50.0,33.0,5,False,2,up,0.25,28,0.0905891000002157,0.49531570001272485,0.5859048000129405,5.437607900006697,True,near-080,33,11,8,6.875,1,up,4,1
228,True,1.558453899982851,800.0,800.0,50.0,0,False,0,down,0.25,0,0,0.022614799992879853,0.022614799992879853,2.4053495000116527,False,near-rndm,32,3,2,1.875,2,down,2,0
229,True,1.6047808999719564,800.0,50.0,33.0,0,False,2,up,0.25,30,0,0.5178282999841031,0.5178282999841031,0.5074712000205182,False,near-000,33,7,3,4.375,2,up,1,0
230,True,1.7812211999844294,800.0,33.0,50.0,0,False,3,up,0.25,50,0,0.8185768999974243,0.8185768999974243,1.3169824000215158,True,near-rnd3,33,1,1,0.625,2,up,1,0
231,True,4.639623900002334,800.0,100.0,50.0,0,False,1,down,0.25,4,0,0.10064479999709874,0.10064479999709874,1.1443830000062007,True,near-rnd2,32,7,6,4.375,2,down,2,0
232,True,3.457917899999302,800.0,50.0,33.0,0,False,2,up,0.25,30,0,0.5164924999990035,0.5164924999990035,0.6525517999834847,True,near-000,34,8,4,5.0,2,up,1,0
233,True,2.433472900011111,800.0,50.0,33.0,5,False,2,down,0.25,26,0.08719429999473505,0.45357569999760017,0.5407699999923352,0.5728972999786492,False,near-080,34,1,0,0.625,1,down,1,0
234,True,4.589315099990927,800.0,800.0,50.0,0,False,0,down,0.25,0,0,0.024140900000929832,0.024140900000929832,2.3233002000197303,False,near-rndm,33,4,2,2.5,2,down,2,0
235,True,2.198441099986667,800.0,33.0,50.0,0,False,3,up,0.25,50,0,0.9254677999997512,0.9254677999997512,1.1818986000143923,True,near-rnd3,34,2,2,1.25,2,up,1,0
236,True,1.9891271000087727,800.0,50.0,33.0,10,False,2,down,0.25,20,0.1733319999766536,0.35796120000304654,0.5312931999797001,0.9819714000041131,False,near-160,34,8,4,5.0,2,down,2,0
237,True,1.2778339000069536,800.0,100.0,50.0,0,False,1,down,0.25,4,0,0.11112590000266209,0.11112590000266209,0.9122632000071462,True,near-rnd2,33,8,7,5.0,2,down,2,0
238,True,1.3773038999934215,800.0,50.0,33.0,15,False,2,up,0.25,36,0.2489660000137519,0.6114933000062592,0.8604593000200111,0.4770864000020083,True,near-240,33,4,3,2.5,1,up,8,0
239,True,2.7324537999811582,800.0,50.0,33.0,0,False,2,up,0.25,30,0,0.5122976999846287,0.5122976999846287,0.5302568000042811,True,near-000,35,9,5,5.625,2,up,1,1
240,True,1.9256681999831926,800.0,33.0,50.0,0,False,3,up,0.25,50,0,0.821493700001156,0.821493700001156,1.4648762000142597,False,near-rnd3,35,3,2,1.875,2,up,1,0
241,True,5.77119960001437,800.0,100.0,50.0,0,False,1,down,0.25,4,0,0.10671570000704378,0.10671570000704378,0.8443169000092894,True,near-rnd2,34,9,8,5.625,2,down,2,1
242,True,1.7734397999884095,800.0,50.0,33.0,10,False,2,down,0.25,20,0.17186640002182685,0.3636132999963593,0.5354797000181861,0.5052853999950457,True,near-160,35,9,5,5.625,2,down,2,1
243,True,9.742017599986866,800.0,50.0,33.0,15,False,2,up,0.25,36,0.24723700000322424,0.6245238999836147,0.8717608999868389,0.96685629998683,False,near-240,34,5,3,3.125,1,up,8,0
244,True,2.514530000014929,800.0,800.0,50.0,0,False,0,down,0.25,0,0,0.025613500009058043,0.025613500009058043,2.2405500000168104,True,near-rndm,34,5,3,3.125,2,down,2,0
245,True,1.2799191999947652,800.0,50.0,33.0,5,False,2,down,0.25,26,0.09096229998976924,0.4636299000121653,0.5545922000019345,0.8455080999992788,True,near-080,35,2,1,1.25,2,down,1,0
246,True,9.172649399988586,800.0,800.0,50.0,0,False,0,down,0.25,0,0,0.025678299978608266,0.025678299978608266,0.7896636000077706,True,near-rndm,35,6,4,3.75,2,down,2,0
247,True,2.136473999998998,800.0,33.0,50.0,0,False,3,up,0.25,50,0,0.8211652000027243,0.8211652000027243,2.267406700004358,False,near-rnd3,36,4,2,2.5,2,up,1,0
248,True,1.801031699986197,800.0,50.0,33.0,15,False,2,up,0.25,36,0.24859750000177883,0.6173892999941017,0.8659867999958806,4.928697299998021,False,near-240,35,6,3,3.75,1,up,8,0
249,True,1.7642301000014413,800.0,50.0,33.0,10,False,2,down,0.25,20,0.1723679999995511,0.3603540000040084,0.5327220000035595,4.162567299994407,False,near-160,36,10,5,6.25,2,down,2,1
250,True,2.210516399994958,800.0,100.0,50.0,0,False,1,down,0.25,3,0,0.0958991999796126,0.0958991999796126,1.6293316999799572,False,near-rnd2,35,1,0,0.625,2,down,1,0
251,True,1.9336655999941286,800.0,50.0,33.0,5,False,2,down,0.25,26,0.09195880001061596,0.4664947999990545,0.5584536000096705,0.5047420999908354,False,near-080,36,3,1,1.875,2,down,1,0
252,True,1.9925012000021525,800.0,50.0,33.0,0,False,2,up,0.25,30,0,0.5242212000011932,0.5242212000011932,0.8226054000260774,True,near-000,36,10,6,6.25,2,up,1,1
253,True,2.1899203999782912,800.0,50.0,33.0,10,False,2,down,0.25,20,0.17149780000909232,0.3683063999924343,0.5398042000015266,0.44966240000212565,False,near-160,37,11,5,6.875,2,down,2,1
254,True,1.1332345999835525,800.0,50.0,33.0,5,False,2,down,0.25,26,0.0875260999891907,0.46229250001488253,0.5498186000040732,0.5220513000094797,False,near-080,37,4,1,2.5,2,down,1,0
255,True,3.0756907999748364,800.0,50.0,33.0,15,False,2,up,0.25,36,0.2489190000051167,0.6115004999737721,0.8604194999788888,5.670571700000437,False,near-240,36,7,3,4.375,1,up,8,0
256,True,1.3433058999944478,800.0,50.0,33.0,0,False,2,up,0.25,30,0,0.515126300015254,0.515126300015254,0.4579301000048872,False,near-000,37,11,6,6.875,2,up,1,1
257,True,1.0680891000083648,800.0,33.0,50.0,0,False,3,up,0.25,50,0,0.8188690999813844,0.8188690999813844,5.28717900000629,False,near-rnd3,37,5,2,3.125,2,up,1,0
258,True,2.017657300020801,800.0,100.0,50.0,0,False,1,down,0.25,3,0,0.0940081000153441,0.0940081000153441,4.357705200003693,False,near-rnd2,36,2,0,1.25,2,down,1,0
259,True,2.0985420999932103,800.0,800.0,50.0,0,False,0,down,0.25,0,0,0.0251529999950435,0.0251529999950435,1.0261838000151329,False,near-rndm,36,7,4,4.375,2,down,2,0
260,True,1.6072634999873117,800.0,50.0,33.0,5,False,2,down,0.25,26,0.08951859999797307,0.45166160000371747,0.5411802000016905,0.6118330000026617,True,near-080,38,5,2,3.125,2,down,1,0
261,True,1.5112721000041347,800.0,100.0,50.0,0,False,1,down,0.25,3,0,0.09171179999248125,0.09171179999248125,0.8598552999901585,True,near-rnd2,37,3,1,1.875,2,down,1,0
262,True,1.9055735000001732,800.0,800.0,50.0,0,False,0,down,0.25,0,0,0.025036799983354285,0.025036799983354285,1.3930124999897089,False,near-rndm,37,8,4,5.0,2,down,2,0
263,True,2.2871117000177037,800.0,50.0,33.0,15,False,2,up,0.25,44,0.2518333999905735,0.7479358999989927,0.9997692999895662,1.323107500007609,True,near-240,37,1,1,0.625,1,up,16,0
264,True,1.3444252000190318,800.0,33.0,50.0,0,False,3,up,0.25,50,0,0.8198649999976624,0.8198649999976624,1.8094066999910865,False,near-rnd3,38,6,2,3.75,2,up,1,0
265,True,5.932463000004645,800.0,50.0,33.0,0,False,2,up,0.25,30,0,0.5161381000070833,0.5161381000070833,0.6417356000165455,True,near-000,38,12,7,7.5,2,up,1,1
266,True,4.915244400006486,800.0,50.0,33.0,10,False,2,down,0.25,20,0.16711969999596477,0.36239880000357516,0.5295184999995399,0.1541000000142958,True,near-160,38,12,6,7.5,2,down,2,1
267,True,1.341744799981825,800.0,100.0,50.0,0,False,1,down,0.25,3,0,0.08097680000355467,0.08097680000355467,3.141414200013969,False,near-rnd2,38,4,1,2.5,2,down,1,0
268,True,3.5255288000043947,800.0,50.0,33.0,5,False,2,down,0.25,26,0.09147379998466931,0.4848860999918543,0.5763598999765236,0.38682149999658577,False,near-080,39,6,2,3.75,2,down,1,0
269,True,1.9793072000029497,800.0,50.0,33.0,0,False,2,up,0.25,30,0,0.5174080000142567,0.5174080000142567,0.33077299999422394,True,near-000,39,13,8,8.125,2,up,1,1
270,True,2.0984294999798294,800.0,800.0,50.0,0,False,0,down,0.25,0,0,0.02637249999679625,0.02637249999679625,1.269451799977105,False,near-rndm,38,9,4,5.625,2,down,2,1
271,True,2.8231478999950923,800.0,50.0,33.0,10,False,2,down,0.25,20,0.17043120000744238,0.36710129998391494,0.5375324999913573,0.7198015000030864,True,near-160,39,13,7,8.125,2,down,2,1
272,True,1.90381879999768,800.0,50.0,33.0,15,False,2,up,0.25,44,0.25541270000394434,0.7402542000054382,0.9956669000093825,0.2567638000182342,True,near-240,38,2,2,1.25,1.0,up,16,0
273,True,1.760288199991919,800.0,33.0,50.0,0,False,3,up,0.25,50,0,0.8189817999955267,0.8189817999955267,0.2602296999830287,False,near-rnd3,39,7,2,4.375,2,up,1,0
274,True,2.305945200001588,800.0,33.0,50.0,0,False,3,up,0.25,51,0,0.8398748000035994,0.8398748000035994,0.14755550000700168,True,near-rnd3,40,1,1,0.625,2,up,1,0
275,True,2.419791599997552,800.0,50.0,33.0,15,False,2,up,0.25,44,0.2466429999913089,0.7523728999949526,0.9990158999862615,1.2530076999973971,False,near-240,39,3,2,1.875,1.0,up,16,0
276,True,1.9876567000173964,800.0,50.0,33.0,0,False,2,up,0.25,30,0,0.5202117000008002,0.5202117000008002,0.5780093999928795,True,near-000,40,14,9,8.75,2,up,1,1
277,True,1.8187639999960084,800.0,50.0,33.0,5,False,2,down,0.25,26,0.09070140001131222,0.46200020000105724,0.5527016000123695,0.5240504999819677,True,near-080,40,7,3,4.375,2,down,1,0
278,True,2.3302254999871366,800.0,800.0,50.0,0,False,0,down,0.25,0,0,0.02125650001107715,0.02125650001107715,1.1939018000266515,True,near-rndm,39,10,5,6.25,2,down,2,1
279,True,1.4960090999957174,800.0,50.0,33.0,10,False,2,down,0.25,20,0.1697390000044834,0.36308129999088123,0.5328202999953646,1.6636014999821782,False,near-160,40,14,7,8.75,2,down,2,1
280,True,1.9572327000205405,800.0,100.0,50.0,0,False,1,down,0.25,3,0,0.0889690000039991,0.0889690000039991,1.6886716000153683,True,near-rnd2,39,5,2,3.125,2,down,1,0
281,True,1.5394218000001274,800.0,50.0,33.0,15,False,2,up,0.25,44,0.24970759998541325,0.7424433999985922,0.9921509999840055,3.90881160000572,False,near-240,40,4,2,2.5,0.5,up,16,0
282,True,2.135174299997743,800.0,800.0,50.0,0,False,0,down,0.25,0,0,0.02342409998527728,0.02342409998527728,0.9533927000011317,False,near-rndm,40,11,5,6.875,2,down,2,1
283,True,1.2377089000074193,800.0,50.0,33.0,5,False,2,down,0.25,26,0.08638819999760017,0.4537459000130184,0.5401341000106186,0.5214372000191361,True,near-080,41,8,4,5.0,2,down,1,0
284,True,3.31975669998792,800.0,50.0,33.0,0,False,2,up,0.25,30,0,0.5162503000174183,0.5162503000174183,0.34483109999564476,True,near-000,41,15,10,9.375,2,up,1,1
285,True,1.274032499990426,800.0,100.0,50.0,0,False,1,down,0.25,3,0,0.08993620000546798,0.08993620000546798,2.3794803000055254,True,near-rnd2,40,6,3,3.75,2,down,1,0
286,True,2.153753799997503,800.0,50.0,33.0,10,False,2,down,0.25,20,0.17401939997216687,0.3698930999962613,0.5439124999684282,0.9036941999802366,False,near-160,41,15,7,9.375,2,down,2,1
287,True,1.5804601999989245,800.0,33.0,50.0,0,False,3,up,0.25,51,0,0.8367992000130471,0.8367992000130471,0.5629808999947272,False,near-rnd3,41,2,1,1.25,2,up,1,0
288,True,4.395234399999026,800.0,50.0,33.0,5,False,2,down,0.25,26,0.09007730000303127,0.4556309999898076,0.5457082999928389,2.607890099985525,False,near-080,42,9,4,5.625,2,down,1,1
289,True,4.848481599998195,800.0,100.0,50.0,0,False,1,down,0.25,3,0,0.09543580000172369,0.09543580000172369,1.154746799991699,True,near-rnd2,41,7,4,4.375,2,down,1,0
290,True,3.120599099987885,800.0,800.0,50.0,0,False,0,down,0.25,0,0,0.023485300014726818,0.023485300014726818,0.9804576000024099,False,near-rndm,41,12,5,7.5,2,down,2,1
291,True,1.300724500004435,800.0,33.0,50.0,0,False,3,up,0.25,51,0,0.8316944999969564,0.8316944999969564,0.3283536000235472,False,near-rnd3,42,3,1,1.875,2,up,1,0
292,True,1.7787229999958072,800.0,50.0,33.0,10,False,2,up,0.25,21,0.1685983000206761,0.3819923000119161,0.5505906000325922,1.1514801000012085,False,near-160,42,1,0,0.625,2,up,1,0
293,False,1.8755044999998063,800.0,50.0,33.0,15,False,2,up,0.25,44,0.25286459998460487,0.7464753999956883,0.9993399999802932,0.6668659999850206,False,near-240,41,5,2,3.125,0.5,up,16,0
294,True,1.259267000015825,800.0,50.0,33.0,0,False,2,up,0.25,30,0,0.523237599991262,0.523237599991262,0.9024218000122346,False,near-000,42,16,10,10.0,2,up,1,1
295,True,1.5355944999901112,800.0,33.0,50.0,0,False,3,up,0.25,51,0,0.836810200009495,0.836810200009495,1.8293220000050496,False,near-rnd3,43,4,1,2.5,2,up,1,0
296,True,1.4502694999973755,800.0,100.0,50.0,0,False,1,down,0.25,3,0,0.08329119998961687,0.08329119998961687,1.129916100006085,False,near-rnd2,42,8,4,5.0,2,down,1,0
297,True,1.2991658999817446,800.0,50.0,33.0,5,False,2,down,0.25,26,0.08797329998924397,0.45836980000603944,0.5463430999952834,0.43966160001582466,True,near-080,43,10,5,6.25,2,down,1,1
298,True,2.1033087999967393,800.0,50.0,33.0,10,False,2,up,0.25,21,0.17032999999355525,0.3849577000073623,0.5552877000009175,1.3511455999978352,False,near-160,43,2,0,1.25,3,up,1,0
299,True,2.3331027000094764,800.0,50.0,33.0,15,False,2,up,0.25,44,0.253904799988959,0.7501781000173651,1.004082900006324,0.5950691000034567,False,near-240,41,5,2,3.125,0.5,up,16,0
300,True,1.7049847999878693,800.0,800.0,50.0,0,False,0,up,0.25,1,0,0.04476709998562001,0.04476709998562001,0.9703063999768347,True,near-rndm,42,1,1,0.625,2,up,1,0
301,True,1.3588318999973126,800.0,33.0,50.0,0,False,3,up,0.25,51,0,0.8357237000018358,0.8357237000018358,1.7403711999941152,False,near-rnd3,44,5,1,3.125,2,up,1,0
302,True,2.2809385000145994,800.0,800.0,50.0,0,False,0,up,0.25,1,0,0.0446659000008367,0.0446659000008367,0.6369332000031136,True,near-rndm,43,2,2,1.25,3,up,1,0
303,True,1.4116339000174776,800.0,50.0,33.0,10,False,2,up,0.25,21,0.16812000001664273,0.3725399999821093,0.540659999998752,0.7815923999878578,True,near-160,44,3,1,1.875,3,up,1,0
304,True,6.531118799990509,800.0,100.0,50.0,0,False,1,down,0.25,3,0,0.0919498999719508,0.0919498999719508,0.799993299995549,False,near-rnd2,43,9,4,5.625,2,down,1,1
305,True,6.550502800004324,800.0,50.0,33.0,15,False,2,up,0.25,60,0.25495370000135154,1.0064171999983955,1.261370899999747,0.5683066000055987,True,near-240,42,1,1,0.625,0.5,up,16,0
306,True,6.112449200008996,800.0,50.0,33.0,5,False,2,down,0.25,26,0.0879819999972824,0.4659813999896869,0.5539633999869693,0.165030799980741,True,near-080,44,11,6,6.875,2,down,1,1
307,True,4.595075499993982,800.0,50.0,33.0,15,False,2,up,0.25,60,0.2502147000050172,0.9970369999937247,1.247251699998742,0.5685645999910776,True,near-240,43,2,2,1.25,1.0,up,16,0
308,True,7.9864040999964345,800.0,50.0,33.0,10,False,2,up,0.25,21,0.1673540000047069,0.37420510000083596,0.5415591000055429,0.7843737999792211,True,near-160,45,4,2,2.5,3,up,1,0
309,True,1.6108131999790203,800.0,100.0,50.0,0,False,1,down,0.25,3,0,0.09434359997976571,0.09434359997976571,1.2642030999995768,False,near-rnd2,44,10,4,6.25,2,down,1,1
310,True,7.474733700015349,800.0,800.0,50.0,0,False,0,up,0.25,1,0,0.05105579999508336,0.05105579999508336,0.6014520000026096,True,near-rndm,44,3,3,1.875,3,up,1,0
311,True,2.8287758999795187,800.0,50.0,33.0,5,False,2,down,0.25,26,0.09336609998717904,0.4596432999824174,0.5530093999695964,0.7131175000104122,True,near-080,45,12,7,7.5,2,down,1,1
312,True,8.501709500007564,800.0,33.0,50.0,0,False,3,up,0.25,52,0,0.8534271999960765,0.8534271999960765,0.4246600999904331,False,near-rnd3,45,1,0,0.625,2,up,1,0
313,True,1.1690791999862995,800.0,50.0,33.0,5,False,2,down,0.25,26,0.09045550000155345,0.4625064999854658,0.5529619999870192,0.38606720001553185,False,near-080,46,13,7,8.125,2,down,1,1
314,True,1.6625164999859408,800.0,50.0,33.0,15,False,2,up,0.25,60,0.25178399999276735,1.0012780000106432,1.2530620000034105,0.13561480000498705,False,near-240,44,3,2,1.875,1.0,up,16,0
315,True,1.8558643000142183,800.0,800.0,50.0,0,False,0,up,0.25,1,0,0.049655100010568276,0.049655100010568276,0.8300206999992952,False,near-rndm,45,4,3,2.5,3,up,1,0
316,True,1.9030225000169594,800.0,50.0,33.0,10,False,2,up,0.25,21,0.16740530001698062,0.3782303000043612,0.5456356000213418,0.43803819999448024,True,near-160,46,5,3,3.125,3,up,1,0
317,True,2.2934574999962933,800.0,33.0,50.0,0,False,3,up,0.25,52,0,0.8524196000071242,0.8524196000071242,0.4282136000110768,False,near-rnd3,46,2,0,1.25,2,up,1,0
318,True,1.2957494000147562,800.0,50.0,33.0,15,False,2,up,0.25,60,0.2549656000046525,1.0024703000090085,1.257435900013661,0.8583165000018198,True,near-240,45,4,3,2.5,0.5,up,16,0
319,True,2.179143199988175,800.0,800.0,50.0,0,False,0,up,0.25,1,0,0.04937159997643903,0.04937159997643903,0.8874923000112176,True,near-rndm,46,5,4,3.125,3,up,1,0
320,True,1.8978936999919824,800.0,50.0,33.0,5,False,2,down,0.25,26,0.08963750000111759,0.4631608000199776,0.5527983000210952,0.44244400001480244,True,near-080,47,14,8,8.75,2,down,1,1
321,True,1.822999299998628,800.0,50.0,33.0,10,False,2,up,0.25,21,0.16848910000408068,0.3804303999932017,0.5489194999972824,0.48028090002480894,True,near-160,47,6,4,3.75,3,up,1,0
322,True,4.811656800011406,800.0,33.0,50.0,0,False,3,up,0.25,52,0,0.8560427000047639,0.8560427000047639,0.3496807999908924,False,near-rnd3,47,3,0,1.875,2,up,1,0
323,True,1.337941999983741,800.0,50.0,33.0,5,False,2,down,0.25,26,0.09337779998895712,0.454393699998036,0.5477714999869931,0.3443420000257902,False,near-080,48,15,8,9.375,2,down,1,1
324,True,1.2640299999911804,800.0,33.0,50.0,0,False,3,up,0.25,52,0,0.8555721000011545,0.8555721000011545,0.6209104000008665,False,near-rnd3,48,4,0,2.5,2,up,1,0
325,True,2.2094412999867927,800.0,800.0,50.0,0,False,0,up,0.25,1,0,0.0430301999731455,0.0430301999731455,0.6727504000009503,True,near-rndm,47,6,5,3.75,3,up,1,0
326,True,2.457808200008003,800.0,50.0,33.0,15,False,2,up,0.25,60,0.25242140001500957,1.0004049999988638,1.2528264000138734,0.6335757999913767,False,near-240,46,5,3,3.125,0.5,up,16,0
327,True,1.5211742999963462,800.0,50.0,33.0,10,False,2,up,0.25,21,0.17034099999000318,0.3764072999765631,0.5467482999665663,3.6097883000038564,True,near-160,48,7,5,4.375,3,up,1,0
328,True,2.223557899997104,800.0,800.0,50.0,0,False,0,up,0.25,1,0,0.04275900000357069,0.04275900000357069,0.928932300012093,False,near-rndm,48,7,5,4.375,3,up,1,0
329,True,1.1007226000074297,800.0,50.0,33.0,5,False,2,down,0.25,26,0.08896110000205226,0.4610529000055976,0.5500140000076499,0.40057090000482276,False,near-080,49,16,8,10.0,2,down,1,1
330,True,1.923731199989561,800.0,33.0,50.0,0,False,3,up,0.25,53,0,0.869763900001999,0.869763900001999,0.2141090999939479,True,near-rnd3,49,1,1,0.625,2,up,2,0
331,True,2.040054400014924,800.0,50.0,33.0,10,False,2,up,0.25,21,0.16862280000350438,0.38040739999269135,0.5490301999961957,0.3667529999802355,False,near-160,49,8,5,5.0,3,up,1,0
332,True,1.2217087000026368,800.0,50.0,33.0,15,False,2,up,0.25,60,0.2503656000189949,0.995500599994557,1.2458662000135519,0.3585994000022765,False,near-240,47,6,3,3.75,0.5,up,16,0
333,True,1.4675654999737162,800.0,33.0,50.0,0,False,3,up,0.25,53,0,1.051943400001619,1.051943400001619,0.07476580000366084,True,near-rnd3,50,2,2,1.25,2,up,2,0
334,True,1.5820445000135805,800.0,800.0,50.0,0,False,0,up,0.25,1,0,0.0425779000215698,0.0425779000215698,0.8188685000059195,True,near-rndm,49,8,6,5.0,3,up,1,0
335,True,1.2583702999982052,800.0,50.0,33.0,15,False,2,up,0.25,76,0.24659439999959432,1.2645668000041042,1.5111612000036985,0.20356829999946058,False,near-240,48,1,0,0.625,0.5,up,16,0
336,True,1.4282899999816436,800.0,50.0,33.0,15,False,2,up,0.25,76,0.24894180000410415,1.2686661999905482,1.5176079999946523,0.17064619998564012,False,near-240,49,2,0,1.25,1.0,up,16,0
337,True,1.4083071000059135,800.0,33.0,50.0,0,False,3,up,0.25,53,0,0.8742617999960203,0.8742617999960203,0.26521990000037476,False,near-rnd3,51,3,2,1.875,2,up,2,0
338,True,4.92230990002281,800.0,33.0,50.0,0,False,3,up,0.25,53,0,0.8704246999986935,0.8704246999986935,0.10695440002018586,False,near-rnd3,52,4,2,2.5,2,up,2,0
339,True,10.319413299992448,800.0,50.0,33.0,15,False,2,up,0.25,80,0.25213870001607575,1.3261026999971364,1.5782414000132121,0.8063857999804895,False,near-240,50,1,0,0.625,1.0,up,16,0
340,True,3.7066871000279207,800.0,33.0,50.0,0,False,3,up,0.25,53,0,0.8702718999993522,0.8702718999993522,0.45236610001302324,False,near-rnd3,53,5,2,3.125,2,up,2,0
341,True,1.7232641000009608,800.0,50.0,33.0,15,False,2,up,0.25,80,0.2497975000005681,1.328332099976251,1.578129599976819,0.36733720000484027,True,near-240,51,2,1,1.25,1.0,up,16,0
342,True,1.3006463999918196,800.0,50.0,33.0,15,False,2,up,0.25,80,0.2497233000176493,1.327286300016567,1.5770096000342164,0.39110040001105517,False,near-240,52,3,1,1.875,1.0,up,16,0
343,True,1.1238484999921639,800.0,33.0,50.0,0,False,3,up,0.25,53,0,0.8704356999951415,0.8704356999951415,0.4366642000095453,True,near-rnd3,54,6,3,3.75,2,up,2,0
344,True,2.5158556000096723,800.0,50.0,33.0,15,False,2,up,0.25,80,0.25248110000393353,1.3319713000091724,1.584452400013106,0.5607938000175636,False,near-240,53,1,0,0.625,0.5,up,16,0
345,True,1.8994429000013042,800.0,33.0,50.0,0,False,3,up,0.25,53,0,0.8720036000013351,0.8720036000013351,0.46141990000614896,False,near-rnd3,55,7,3,4.375,2,up,2,0
346,True,2.7129796000081114,800.0,33.0,50.0,0,False,3,up,0.25,53,0,0.8648461000120733,0.8648461000120733,0.17776319998665713,False,near-rnd3,56,8,3,5.0,2,up,2,0
347,True,1.1159130000160076,800.0,50.0,33.0,15,False,2,up,0.25,80,0.2485168999992311,1.3159242999972776,1.5644411999965087,0.7323733999801334,True,near-240,54,2,1,1.25,1.0,up,16,0
348,True,1.5789475000055972,800.0,33.0,50.0,0,False,3,up,0.25,53,0,0.870071299985284,0.870071299985284,0.12241380001069047,True,near-rnd3,57,9,4,5.625,2,up,2,1
349,True,1.1486069999809843,800.0,50.0,33.0,15,False,2,up,0.25,80,0.2519109999993816,1.3296975999837741,1.5816085999831557,0.40290049999020994,False,near-240,55,3,1,1.875,1.0,up,16,0
350,True,0.8297423000039998,800.0,50.0,33.0,15,False,2,up,0.25,80,0.2477976999944076,1.3188018999935593,1.566599599987967,0.14380499999970198,False,near-240,56,1,0,0.625,0.5,up,16,0
351,True,1.4448611999978311,800.0,33.0,50.0,0,False,3,up,0.25,53,0,0.8734468000184279,0.8734468000184279,0.14460030000191182,False,near-rnd3,58,10,4,6.25,2,up,2,1
352,True,1.4019920999999158,800.0,50.0,33.0,15,False,2,up,0.25,80,0.252149100007955,1.3237466999853496,1.5758957999933045,0.3142200000002049,False,near-240,57,2,0,1.25,1.0,up,16,0
353,True,1.2066090000153054,800.0,33.0,50.0,0,False,3,up,0.25,54,0,0.8860328000155278,0.8860328000155278,0.9173216999915894,False,near-rnd3,59,1,0,0.625,2,up,2,0
354,True,1.2910817999800202,800.0,50.0,33.0,15,False,2,up,0.25,80,0.25198279999312945,1.3696539999800734,1.6216367999732029,0.14762340000015683,False,near-240,58,1,0,0.625,1.0,up,16,0
355,True,7.933024600002682,800.0,33.0,50.0,0,False,3,up,0.25,54,0,0.883791400003247,0.883791400003247,0.08570990001317114,False,near-rnd3,60,2,0,1.25,2,up,2,0
356,True,1.6423030000005383,800.0,33.0,50.0,0,False,3,up,0.25,54,0,0.8847638000152074,0.8847638000152074,0.3428116000141017,False,near-rnd3,61,3,0,1.875,2,up,2,0
357,True,4.903659300005529,800.0,50.0,33.0,15,False,2,up,0.25,80,0.2484219999751076,1.3230634999927133,1.571485499967821,0.112501900002826,True,near-240,59,2,1,1.25,1.0,up,16,0
358,True,4.564316700008931,800.0,33.0,50.0,0,False,3,up,0.25,54,0,0.8845787000027485,0.8845787000027485,0.731469799997285,False,near-rnd3,62,4,0,2.5,2,up,2,0
359,True,5.414006699982565,800.0,50.0,33.0,15,False,2,up,0.25,80,0.24722469999687746,1.3315683999971952,1.5787930999940727,0.34342970000579953,False,near-240,60,3,1,1.875,1.0,up,16,0
360,True,1.8549910000001546,800.0,50.0,33.0,15,False,2,up,0.25,80,0.2535988999879919,1.3218953000032343,1.5754941999912262,0.3306530000118073,False,near-240,61,1,0,0.625,0.5,up,16,0
361,True,2.940436700009741,800.0,33.0,50.0,0,False,3,up,0.25,56,0,0.9181294000009075,0.9181294000009075,0.43534910000744276,True,near-rnd3,63,1,1,0.625,2,up,4,0
362,True,1.1958525000081863,800.0,50.0,33.0,15,False,2,up,0.25,80,0.2502418000076432,1.3196156999911182,1.5698574999987613,0.38797699997667223,False,near-240,62,2,0,1.25,1.0,up,16,0
363,True,2.401791200012667,800.0,33.0,50.0,0,False,3,up,0.25,56,0,0.918407399993157,0.918407399993157,0.2681136000028346,False,near-rnd3,64,2,1,1.25,1,up,4,0
364,True,1.6935266999935266,800.0,33.0,50.0,0,False,3,up,0.25,56,0,0.9186815000139177,0.9186815000139177,0.16338819998782128,False,near-rnd3,65,3,1,1.875,1,up,4,0
365,True,3.9562428999925032,800.0,50.0,33.0,15,False,2,up,0.25,80,0.2471050999884028,1.326208399987081,1.5733134999754839,0.26892319999751635,True,near-240,63,1,1,0.625,1.0,up,16,0
366,True,1.461800899996888,800.0,33.0,50.0,0,False,3,up,0.25,56,0,0.9171822000062093,0.9171822000062093,0.3422505999915302,False,near-rnd3,66,4,1,2.5,1,up,4,0
367,True,1.3455900000117254,800.0,50.0,33.0,15,False,2,up,0.25,80,0.24909610001486726,1.3190209999738727,1.56811709998874,0.3193654000060633,False,near-240,64,2,1,1.25,1.0,up,16,0
368,True,1.4279853999905754,800.0,33.0,50.0,0,False,3,up,0.25,60,0,0.9887054999999236,0.9887054999999236,0.23428580001927912,True,near-rnd3,67,1,1,0.625,1,up,8,0
369,True,1.4107540000113659,800.0,50.0,33.0,15,False,2,up,0.25,80,0.24710720000439323,1.3345039000269026,1.5816111000312958,0.05349959997693077,True,near-240,65,3,2,1.875,1.0,up,16,0
370,True,1.7042544999858364,800.0,50.0,33.0,15,False,2,up,0.25,80,0.2505423999973573,1.32643340001232,1.5769758000096772,0.16351499999291264,True,near-240,66,4,3,2.5,0.5,up,16,0
371,True,5.709826499980409,800.0,33.0,50.0,0,False,3,up,0.25,60,0,0.9815021999820601,0.9815021999820601,0.2952129000041168,False,near-rnd3,68,2,1,1.25,1,up,8,0
372,True,1.0857706000097096,800.0,33.0,50.0,0,False,3,up,0.25,60,0,0.9839560000109486,0.9839560000109486,4.1186227000143845,False,near-rnd3,69,3,1,1.875,1,up,8,0
373,True,1.4031998999998905,800.0,50.0,33.0,15,False,2,up,0.25,80,0.2526748000236694,1.3264653999940492,1.5791402000177186,0.527900299988687,False,near-240,67,5,3,3.125,0.5,up,16,0
374,True,1.9617813999939244,800.0,33.0,50.0,0,False,3,up,0.25,60,0,0.9810427000047639,0.9810427000047639,0.3835028000175953,False,near-rnd3,70,4,1,2.5,1,up,8,0
375,True,1.615078100003302,800.0,50.0,33.0,15,False,2,up,0.25,80,0.2519503999792505,1.3209327000076883,1.5728830999869388,0.40898909998941235,True,near-240,68,6,4,3.75,0.5,up,16,0
376,True,1.8212301000021398,800.0,50.0,33.0,15,False,2,up,0.25,80,0.24844940000912175,1.3195497000124305,1.5679991000215523,0.40349050000077114,False,near-240,69,7,4,4.375,0.5,up,16,0
377,True,5.712307999987388,800.0,33.0,50.0,0,False,3,up,0.25,68,0,1.109281800017925,1.109281800017925,0.12300399999367073,True,near-rnd3,71,1,1,0.625,1,up,16,0
378,True,2.407876999990549,800.0,33.0,50.0,0,False,3,up,0.25,68,0,1.1076785000041127,1.1076785000041127,0.03375249999226071,False,near-rnd3,72,2,1,1.25,1.0,up,16,0
379,True,4.655823200009763,800.0,50.0,33.0,15,False,2,up,0.25,80,0.24696870002662763,1.3230625999858603,1.570031300012488,0.03639559997827746,True,near-240,70,8,5,5.0,0.5,up,16,0
380,True,1.2831798999977764,800.0,50.0,33.0,15,False,2,up,0.25,80,0.24764479999430478,1.321175499993842,1.5688202999881469,0.3458970000210684,False,near-240,71,9,5,5.625,0.5,up,16,1
381,True,1.8981763999909163,800.0,33.0,50.0,0,False,3,up,0.25,68,0,1.1124755999771878,1.1124755999771878,0.34709720002138056,False,near-rnd3,73,3,1,1.875,1.0,up,16,0
382,True,1.4916815000178758,800.0,50.0,33.0,15,False,2,up,0.25,80,0.25407509997603483,1.3216920999984723,1.575767199974507,0.12424239999381825,True,near-240,72,1,1,0.625,0.5,up,16,0
383,True,3.6825031000189483,800.0,33.0,50.0,0,False,3,up,0.25,80,0,1.3004630999930669,1.3004630999930669,0.1615620999946259,False,near-rnd3,74,1,0,0.625,0.5,up,16,0
384,True,1.3123549000010826,800.0,50.0,33.0,15,False,2,up,0.25,80,0.2509427000186406,1.3205893999838736,1.5715321000025142,0.18988980000722222,True,near-240,73,2,2,1.25,1.0,up,16,0
385,True,3.227435000007972,800.0,33.0,50.0,0,False,3,up,0.25,80,0,1.2998802999791224,1.2998802999791224,1.001508700021077,True,near-rnd3,75,2,1,1.25,1.0,up,16,0
386,True,1.511645699996734,800.0,33.0,50.0,0,False,3,up,0.25,80,0,1.3006171000015456,1.3006171000015456,1.6652177999785636,False,near-rnd3,76,3,1,1.875,1.0,up,16,0
387,True,1.3868330999976024,800.0,50.0,33.0,15,False,2,up,0.25,80,0.253164800000377,1.33086600000388,1.584030800004257,0.1298880999966059,True,near-240,74,3,3,1.875,1.0,up,16,0
388,True,1.3389957999752369,800.0,33.0,50.0,0,False,3,up,0.25,80,0,1.3048676000034902,1.3048676000034902,0.041184699977748096,False,near-rnd3,77,1,0,0.625,0.5,up,16,0
389,True,7.158882799994899,800.0,50.0,33.0,15,False,2,down,0.25,64,0.25387280000722967,1.0609567000064999,1.3148295000137296,0.21906289999606088,True,near-240,75,1,1,0.625,0.5,down,8,0
390,True,3.334633400023449,800.0,33.0,50.0,0,False,3,up,0.25,80,0,1.3006346999900416,1.3006346999900416,0.13292689999798313,True,near-rnd3,78,2,1,1.25,1.0,up,16,0
391,True,1.7620803999889176,800.0,50.0,33.0,15,False,2,down,0.25,64,0.24895629999809898,1.0655321000085678,1.3144884000066668,0.26612170002772473,False,near-240,76,2,1,1.25,1,down,8,0
392,True,1.5573696999927051,800.0,50.0,33.0,15,False,2,down,0.25,64,0.24828749999869615,1.0679279000032693,1.3162154000019655,0.5154214999929536,False,near-240,77,3,1,1.875,1,down,8,0
393,True,1.4543967999925371,800.0,33.0,50.0,0,False,3,up,0.25,80,0,1.3034345000050962,1.3034345000050962,0.17132260001380928,False,near-rnd3,79,3,1,1.875,1.0,up,16,0
394,True,1.5462048999906983,800.0,50.0,33.0,15,False,2,down,0.25,64,0.247821600001771,1.0628995000151917,1.3107211000169627,0.2892351000045892,False,near-240,78,4,1,2.5,1,down,8,0
395,True,1.5520840999961365,800.0,33.0,50.0,0,False,3,up,0.25,80,0,1.3040636999940034,1.3040636999940034,0.6271720000077039,True,near-rnd3,80,1,1,0.625,0.5,up,16,0
396,True,3.252954299998237,800.0,33.0,50.0,0,False,3,up,0.25,80,0,1.3080629000032786,1.3080629000032786,0.40575600002193823,False,near-rnd3,81,2,1,1.25,1.0,up,16,0
397,True,1.1676722000120208,800.0,50.0,33.0,15,False,2,up,0.25,72,0.2551019999955315,1.1990734999999404,1.454175499995472,0.14921529998537153,True,near-240,79,1,1,0.625,1,up,4,0
398,True,1.3771397000236902,800.0,33.0,50.0,0,False,3,up,0.25,80,0,1.337192299979506,1.337192299979506,0.10094789997674525,False,near-rnd3,82,3,1,1.875,1.0,up,16,0
399,True,1.4431462000065949,800.0,50.0,33.0,15,False,2,up,0.25,72,0.25486869999440387,1.1907618999830447,1.4456305999774486,0.4717209999798797,False,near-240,80,2,1,1.25,1,up,4,0
400,True,2.9267256000021007,800.0,33.0,50.0,0,False,3,up,0.25,80,0,1.3056343999924138,1.3056343999924138,0.0886834999837447,False,near-rnd3,83,1,0,0.625,0.5,up,16,0
401,True,1.467435899976408,800.0,50.0,33.0,15,False,2,up,0.25,72,0.25112249999074265,1.1935328000108711,1.4446553000016138,0.20588009999482892,False,near-240,81,3,1,1.875,1,up,4,0
402,True,1.6652670000039507,800.0,50.0,33.0,15,False,2,up,0.25,72,0.2519689000037033,1.1957816000212915,1.4477505000249948,0.3135693999938667,True,near-240,82,4,2,2.5,1,up,4,0
403,True,0.9861444999987725,800.0,33.0,50.0,0,False,3,up,0.25,80,0,1.30420270000468,1.30420270000468,0.48433539998950437,False,near-rnd3,84,2,0,1.25,1.0,up,16,0
404,True,1.8816612999944482,800.0,50.0,33.0,15,False,2,up,0.25,72,0.24748709998675622,1.1997801999968942,1.4472672999836504,0.2835413000138942,False,near-240,83,5,2,3.125,1,up,4,0
405,True,2.243387700000312,800.0,33.0,50.0,0,False,3,up,0.25,80,0,1.3030061999743339,1.3030061999743339,2.7360555000195745,False,near-rnd3,85,1,0,0.625,1.0,up,16,0
406,True,2.7386456000094768,800.0,33.0,50.0,0,False,3,up,0.25,80,0,1.296769900014624,1.296769900014624,0.23531689998344518,True,near-rnd3,86,2,1,1.25,1.0,up,16,0
407,True,4.082371800002875,800.0,50.0,33.0,15,False,2,up,0.25,76,0.251042400021106,1.2660667000163812,1.5171091000374872,0.23577530001057312,True,near-240,84,1,1,0.625,1,up,4,0
408,True,1.0842930999933742,800.0,33.0,50.0,0,False,3,up,0.25,80,0,1.3011773999896832,1.3011773999896832,1.1374448999995366,False,near-rnd3,87,3,1,1.875,1.0,up,16,0
409,True,5.586346299998695,800.0,50.0,33.0,15,False,2,up,0.25,76,0.2562350999796763,1.262654799997108,1.5188898999767844,0.16922219999833032,False,near-240,85,2,1,1.25,1,up,4,0
410,True,1.3479193999955896,800.0,50.0,33.0,15,False,2,up,0.25,76,0.3107631000166293,1.2562895999872126,1.567052700003842,0.3539442000037525,False,near-240,86,3,1,1.875,1,up,4,0
411,True,1.6488924000004772,800.0,33.0,50.0,0,False,3,up,0.25,80,0,1.3050528000167105,1.3050528000167105,0.025044100009836257,True,near-rnd3,88,1,1,0.625,0.5,up,16,0
412,True,1.0438380999839865,800.0,33.0,50.0,0,False,3,up,0.25,80,0,1.308671200007666,1.308671200007666,0.06371539999963716,False,near-rnd3,89,2,1,1.25,1.0,up,16,0
413,True,3.0785626999859232,800.0,50.0,33.0,15,False,2,up,0.25,76,0.24711789999855682,1.2651030000124592,1.512220900011016,1.105442400003085,True,near-240,87,4,2,2.5,1,up,4,0
414,True,14.767302599997493,800.0,33.0,50.0,0,False,3,up,0.25,80,0,1.3066351000161376,1.3066351000161376,0.2688468999986071,True,near-rnd3,90,3,2,1.875,1.0,up,16,0
415,True,2.2974369000003207,800.0,50.0,33.0,15,False,2,up,0.25,76,0.25142039998900145,1.2581399999908172,1.5095603999798186,0.7473888999957126,True,near-240,88,5,3,3.125,1,up,4,0
416,True,8.937750199984293,800.0,33.0,50.0,0,False,3,up,0.25,80,0,1.3021067999943625,1.3021067999943625,1.2034504000039306,True,near-rnd3,91,4,3,2.5,0.5,up,16,0
417,True,1.6877208000223618,800.0,50.0,33.0,15,False,2,up,0.25,76,0.2476648000010755,1.2680513000232168,1.5157161000242922,0.7815250999992713,True,near-240,89,6,4,3.75,1,up,4,0
418,True,1.954081200005021,800.0,33.0,50.0,0,False,3,up,0.25,80,0,1.3057306999980938,1.3057306999980938,0.7130676000087988,False,near-rnd3,92,5,3,3.125,0.5,up,16,0
419,True,3.56168680000701,800.0,50.0,33.0,15,False,2,up,0.25,76,0.25392590000410564,1.2635545000084676,1.5174804000125732,0.16684419999364763,True,near-240,90,7,5,4.375,1,up,4,0
420,True,2.0908000000054017,800.0,50.0,33.0,15,False,2,up,0.25,76,0.25270280000404455,1.2652297999884468,1.5179325999924913,1.0480415000056382,True,near-240,91,8,6,5.0,1,up,4,0
421,True,3.3743224999925587,800.0,33.0,50.0,0,False,3,up,0.25,80,0,1.3057112999958917,1.3057112999958917,0.9001118000014685,True,near-rnd3,93,6,4,3.75,0.5,up,16,0
422,True,3.9837212999991607,800.0,33.0,50.0,0,False,3,up,0.25,80,0,1.3056920999952126,1.3056920999952126,0.4592576999857556,True,near-rnd3,94,7,5,4.375,0.5,up,16,0
423,True,1.640887899993686,800.0,50.0,33.0,15,False,2,up,0.25,76,0.24745299998903647,1.2633929000003263,1.5108458999893628,0.3242354999820236,True,near-240,92,9,7,5.625,1,up,4,1
424,True,2.3693590000038967,800.0,33.0,50.0,0,False,3,down,0.25,64,0,1.046250899991719,1.046250899991719,1.1139727999980096,True,near-rnd3,95,1,1,0.625,0.5,down,8,0
425,True,1.8915839999972377,800.0,50.0,33.0,15,False,2,down,0.25,74,0.3763039000041317,1.2315456999931484,1.6078495999972802,1.1035264999954961,True,near-240,93,1,1,0.625,1,down,1,0
426,True,2.7134074999776203,800.0,50.0,33.0,15,False,2,down,0.25,74,0.24958730000071228,1.2329143999959342,1.4825016999966465,0.3849527999991551,True,near-240,94,2,2,1.25,2,down,1,0
427,True,1.5814519999839831,800.0,33.0,50.0,0,False,3,down,0.25,64,0,1.046923899993999,1.046923899993999,0.8747411000076681,True,near-rnd3,96,2,2,1.25,1,down,8,0
428,True,2.350144600000931,800.0,50.0,33.0,15,False,2,down,0.25,74,0.254233599989675,1.2294930999923963,1.4837266999820713,0.4144781999930274,True,near-240,95,3,3,1.875,2,down,1,0
429,True,3.2601740999962203,800.0,33.0,50.0,0,False,3,down,0.25,64,0,1.0465423999994528,1.0465423999994528,0.46236979999230243,True,near-rnd3,97,3,3,1.875,1,down,8,0
430,True,1.9679662999988068,800.0,33.0,50.0,0,False,3,down,0.25,56,0,0.9250328999769408,0.9250328999769408,0.6062948000035249,True,near-rnd3,98,1,1,0.625,1,down,8,0
431,True,1.6005679999943823,800.0,50.0,33.0,15,False,2,down,0.25,74,0.25309790001483634,1.2329783999884967,1.486076300003333,0.1948287999839522,True,near-240,96,4,4,2.5,2,down,1,0
432,True,2.798533100023633,800.0,50.0,33.0,15,False,2,down,0.25,74,0.2508040999819059,1.2245412000047509,1.4753452999866568,1.0369129999889992,True,near-240,97,5,5,3.125,2,down,1,0
433,True,1.5048488000174984,800.0,33.0,50.0,0,False,3,down,0.25,56,0,0.9199722999765072,0.9199722999765072,0.7531413999968208,True,near-rnd3,99,2,2,1.25,1,down,8,0
434,True,1.9544125999964308,800.0,50.0,33.0,15,False,2,down,0.25,74,0.2499969000054989,1.219049699982861,1.46904659998836,0.4320958000025712,True,near-240,98,6,6,3.75,2,down,1,0
435,True,2.148743000027025,800.0,33.0,50.0,0,False,3,down,0.25,56,0,0.9186460000055376,0.9186460000055376,0.5638547000125982,True,near-rnd3,100,3,3,1.875,1,down,8,0
436,True,1.6777384000015445,800.0,100.0,50.0,0,False,1,up,0.25,4,0,0.10121650001383387,0.10121650001383387,1.9319275000016205,False,near-rnd2,45,1,0,0.625,2,up,16,0
437,True,3.840821399993729,800.0,50.0,33.0,15,False,2,down,0.25,73,0.2499826999846846,1.2159135999972932,1.4658962999819778,0.30868529999861494,True,near-240,99,1,1,0.625,2,down,1,0
438,True,1.6509076000074856,800.0,33.0,50.0,0,False,3,down,0.25,48,0,0.7884949999861419,0.7884949999861419,0.6712857999955304,False,near-rnd3,101,1,0,0.625,1,down,16,0
439,True,1.5848737000196707,800.0,800.0,50.0,0,False,0,up,0.25,1,0,0.0428910999908112,0.0428910999908112,1.5084676999831572,False,near-rndm,50,9,6,5.625,3,up,16,1
440,True,2.6110622999840416,800.0,100.0,50.0,0,False,1,up,0.25,4,0,0.11294059999636374,0.11294059999636374,1.445707000006223,False,near-rnd2,46,2,0,1.25,1.0,up,16,0
441,True,1.3154055000049993,800.0,800.0,50.0,0,False,0,up,0.25,1,0,0.04305379997822456,0.04305379997822456,0.9799785999930464,True,near-rndm,51,10,7,6.25,0.5,up,16,1
442,True,1.2491804999881424,800.0,50.0,33.0,15,False,2,down,0.25,73,0.24689320000470616,1.212133900000481,1.459027100005187,0.06952560000354424,True,near-240,100,2,2,1.25,2,down,1,0
