trial,primeIter,primeCorrect,primeTime,primeDepth,stimDepth,extraDepth,driveFrames,nearToFar,diopters,direction,size,intensity,extraLatency,mainLatency,totalLatency,responseTime,correct,caseLabel,caseTrial,trialsAtStep,stepCorrect,expected,w,direction,stepsize,stepChange
1,1,True,1.7958826999820303,800.0,50.0,33.0,5,False,2,start,0.16666666666666666,60,0.08689520001644269,1.0053715000103693,1.092266700026812,0.44634160000714473,True,near-080,1,1,1,0.625,0.5,start,16,0
2,4,True,2.0090527000138536,800.0,800.0,50.0,0,False,0,start,0.16666666666666666,60,0,1.022124300012365,1.022124300012365,1.5844628999766428,True,near-rndm,1,1,1,0.625,0.5,start,16,0
3,2,True,1.8842695000057574,800.0,50.0,33.0,10,False,2,start,0.16666666666666666,60,0.18003039999166504,1.0089844999893103,1.1890148999809753,0.8470609000069089,True,near-160,1,1,1,0.625,0.5,start,16,0
4,2,True,2.057753400004003,800.0,50.0,33.0,15,False,2,start,0.16666666666666666,60,0.25666670000646263,1.0082675999728963,1.264934299979359,0.6096595000126399,True,near-240,1,1,1,0.625,0.5,start,16,0
5,2,True,1.6665533000195865,800.0,100.0,50.0,0,False,1,start,0.16666666666666666,60,0,1.0173734999843873,1.0173734999843873,0.5055820000125095,True,near-rnd2,1,1,1,0.625,0.5,start,16,0
6,3,True,1.928436199988937,800.0,33.0,50.0,0,False,3,start,0.16666666666666666,60,0,0.9962201999733225,0.9962201999733225,1.8122594000014942,False,near-rnd3,1,1,0,0.625,0.5,start,16,0
7,1,True,1.5766183999949135,800.0,50.0,33.0,0,False,2,start,0.16666666666666666,60,0,1.00220749998698,1.00220749998698,0.6288155000074767,True,near-000,1,1,1,0.625,0.5,start,16,0
8,4,True,1.6141473000170663,800.0,33.0,50.0,0,False,3,start,0.16666666666666666,60,0,1.0006892000092193,1.0006892000092193,1.452204700006405,False,near-rnd3,2,2,0,1.25,1.0,start,16,0
9,1,True,1.361931099992944,800.0,50.0,33.0,15,False,2,start,0.16666666666666666,44,0.2515669999993406,0.8615534999989904,1.113120499998331,0.9849557999987155,True,near-240,2,1,1,0.625,1.0,start,16,0
10,2,True,2.3232075000123587,800.0,50.0,33.0,5,False,2,start,0.16666666666666666,44,0.10294449998764321,0.7553022000065539,0.8582466999941971,0.58637100001215,True,near-080,2,1,1,0.625,1.0,start,16,0
11,1,True,1.4695323999912944,800.0,50.0,33.0,0,False,2,start,0.16666666666666666,44,0,0.7377769000013359,0.7377769000013359,0.9032674999907613,False,near-000,2,1,0,0.625,1.0,start,16,0
12,3,True,1.4874439999985043,800.0,50.0,33.0,10,False,2,start,0.16666666666666666,44,0.18724150001071393,0.7595428000204265,0.9467843000311404,0.5710286000103224,True,near-160,2,1,1,0.625,1.0,start,16,0
13,2,True,4.228552200016566,800.0,800.0,50.0,0,False,0,start,0.16666666666666666,44,0,0.7361915000074077,0.7361915000074077,0.581796199985547,True,near-rndm,2,1,1,0.625,1.0,start,16,0
14,1,True,1.8649331999768037,800.0,100.0,50.0,0,False,1,start,0.16666666666666666,44,0,0.7414630000130273,0.7414630000130273,0.5761186999734491,True,near-rnd2,2,1,1,0.625,1.0,start,16,0
15,1,True,1.5900980999867897,800.0,33.0,50.0,0,False,3,up,0.16666666666666666,76,0,1.237845700001344,1.237845700001344,1.1297911000146996,True,near-rnd3,3,1,1,0.625,1.0,up,16,0
16,2,True,2.9399392000050284,800.0,50.0,33.0,5,False,2,start,0.16666666666666666,28,0.09621369998785667,0.4981716000183951,0.5943853000062518,1.1068706999940332,False,near-080,3,1,0,0.625,1.0,start,16,0
17,3,True,1.6847039999847766,800.0,50.0,33.0,10,False,2,start,0.16666666666666666,28,0.1788857000065036,0.5081064999976661,0.6869922000041697,0.558720999979414,True,near-160,3,1,1,0.625,1.0,start,16,0
18,2,True,2.188223500008462,800.0,800.0,50.0,0,False,0,start,0.16666666666666666,28,0,0.4837771999882534,0.4837771999882534,0.4101980999985244,True,near-rndm,3,1,1,0.625,1.0,start,16,0
19,4,True,2.1382680000097025,800.0,100.0,50.0,0,False,1,start,0.16666666666666666,28,0,0.5109381999936886,0.5109381999936886,0.7293938999937382,True,near-rnd2,3,1,1,0.625,1.0,start,16,0
20,3,True,1.5975098999915645,800.0,50.0,33.0,15,False,2,start,0.16666666666666666,28,0.26393250000546686,0.5124193000083324,0.7763518000137992,0.8294538999907672,True,near-240,3,1,1,0.625,1.0,start,16,0
21,3,True,2.044572499988135,800.0,50.0,33.0,0,False,2,start,0.16666666666666666,44,0,0.7501955000043381,0.7501955000043381,0.5518876999849454,True,near-000,3,2,1,1.25,1.0,start,16,0
22,1,True,1.3492726999975275,800.0,800.0,50.0,0,False,0,start,0.16666666666666666,12,0,0.2159455000073649,0.2159455000073649,0.5756567000062205,True,near-rndm,4,1,1,0.625,0.5,start,16,0
23,2,True,1.5077806000190321,800.0,100.0,50.0,0,False,1,start,0.16666666666666666,12,0,0.23965830000815913,0.23965830000815913,1.1161008999915794,False,near-rnd2,4,1,0,0.625,0.5,start,16,0
24,1,True,5.465687699994305,800.0,50.0,33.0,15,False,2,start,0.16666666666666666,12,0.25363319998723455,0.2374699999927543,0.49110319997998886,1.2552343000133988,False,near-240,4,1,0,0.625,0.5,start,16,0
25,2,True,1.4146166999998968,800.0,50.0,33.0,0,False,2,start,0.16666666666666666,28,0,0.4949804000207223,0.4949804000207223,1.6954069000203162,False,near-000,4,1,0,0.625,0.5,start,16,0
26,2,True,0.9733061000006273,800.0,50.0,33.0,5,False,2,up,0.16666666666666666,44,0.10063529998296872,0.7561583000060637,0.8567935999890324,0.6219507000059821,True,near-080,4,1,1,0.625,0.5,up,16,0
27,2,True,1.0354259999876376,800.0,50.0,33.0,10,False,2,start,0.16666666666666666,12,0.1766285999910906,0.23995050002122298,0.4165791000123136,2.0817759000055958,False,near-160,4,1,0,0.625,0.5,start,16,0
28,3,True,1.1846290999965277,800.0,33.0,50.0,0,False,3,up,0.16666666666666666,76,0,1.2596097000059672,1.2596097000059672,1.187611500005005,True,near-rnd3,4,2,2,1.25,1.0,up,16,0
29,1,True,1.4602111999993213,800.0,100.0,50.0,0,False,1,up,0.16666666666666666,28,0,0.4904681000043638,0.4904681000043638,0.7142902000050526,True,near-rnd2,5,1,1,0.625,0.5,up,16,0
30,1,True,3.025711499998579,800.0,50.0,33.0,5,False,2,up,0.16666666666666666,44,0.09390249999705702,0.7532747000223026,0.8471772000193596,1.4931328000093345,False,near-080,5,2,1,1.25,1.0,up,16,0
31,1,True,1.4351081000058912,800.0,50.0,33.0,15,False,2,up,0.16666666666666666,28,0.2524686999968253,0.49493439999059774,0.747403099987423,0.707043500005966,True,near-240,5,1,1,0.625,0.5,up,16,0
32,2,True,2.4851134999771602,800.0,800.0,50.0,0,False,0,start,0.16666666666666666,0,0,0.03302180001628585,0.03302180001628585,1.1199594999779947,False,near-rndm,5,1,0,0.625,0.5,start,16,0
33,1,True,1.0486351000145078,800.0,33.0,50.0,0,False,3,up,0.16666666666666666,76,0,1.2379302999761421,1.2379302999761421,0.6786748000013176,True,near-rnd3,5,3,3,1.875,1.0,up,16,0
34,1,True,1.2227360999968369,800.0,50.0,33.0,0,False,2,up,0.16666666666666666,44,0,0.7387630000011995,0.7387630000011995,0.6517821000015829,True,near-000,5,1,1,0.625,0.5,up,16,0
35,1,True,1.7220086000161245,800.0,50.0,33.0,10,False,2,up,0.16666666666666666,28,0.17290060000959784,0.4922822000226006,0.6651828000321984,1.2825040000025183,False,near-160,5,1,0,0.625,0.5,up,16,0
36,2,True,1.0931916999979876,800.0,33.0,50.0,0,False,3,down,0.16666666666666666,60,0,0.9861954000080004,0.9861954000080004,1.1651997000153642,False,near-rnd3,6,1,0,0.625,0.5,down,8,0
37,2,True,1.8446148000075482,800.0,50.0,33.0,10,False,2,up,0.16666666666666666,28,0.1752672999864444,0.4976764000020921,0.6729436999885365,0.5465243000071496,True,near-160,6,2,1,1.25,1.0,up,16,0
38,3,True,1.7581226999755017,800.0,800.0,50.0,0,False,0,up,0.16666666666666666,16,0,0.3268367999990005,0.3268367999990005,0.5818895999982487,True,near-rndm,6,1,1,0.625,0.5,up,16,0
39,3,True,1.3160510000016075,800.0,50.0,33.0,15,False,2,up,0.16666666666666666,28,0.25908310001250356,0.5067026999895461,0.7657858000020497,0.5315845000150148,True,near-240,6,2,2,1.25,1.0,up,16,0
40,1,True,1.525270999991335,800.0,50.0,33.0,0,False,2,up,0.16666666666666666,44,0,0.7469665999815334,0.7469665999815334,0.9299110999854747,True,near-000,6,2,2,1.25,1.0,up,16,0
41,4,True,0.9877607999951579,800.0,100.0,50.0,0,False,1,up,0.16666666666666666,28,0,0.5248188000114169,0.5248188000114169,0.5319133999873884,True,near-rnd2,6,2,2,1.25,1.0,up,16,0
42,1,True,1.1107036999892443,800.0,50.0,33.0,5,False,2,up,0.16666666666666666,44,0.08886220000567846,0.7464207999873906,0.8352829999930691,0.5919902000168804,True,near-080,6,3,2,1.875,1.0,up,16,0
43,3,True,1.4712052999821026,800.0,800.0,50.0,0,False,0,up,0.16666666666666666,16,0,0.3070043999759946,0.3070043999759946,0.6574370000162162,True,near-rndm,7,2,2,1.25,1.0,up,16,0
44,2,True,1.051374599977862,800.0,50.0,33.0,5,False,2,up,0.16666666666666666,44,0.09438750002300367,0.7532170000195038,0.8476045000425074,0.5791858999873511,True,near-080,7,4,3,2.5,0.5,up,16,0
45,2,True,1.1174425999925006,800.0,33.0,50.0,0,False,3,down,0.16666666666666666,60,0,0.9915079000056721,0.9915079000056721,0.7362499999871943,False,near-rnd3,7,2,0,1.25,1,down,8,0
46,2,True,0.8455389000009745,800.0,50.0,33.0,15,False,2,up,0.16666666666666666,28,0.25663499999791384,0.49738539999816567,0.7540203999960795,0.6791582999867387,True,near-240,7,3,3,1.875,1.0,up,16,0
47,4,True,1.383412800001679,800.0,50.0,33.0,10,False,2,up,0.16666666666666666,28,0.18421380000654608,0.5128446999879088,0.6970584999944549,0.505709899996873,True,near-160,7,3,2,1.875,1.0,up,16,0
48,3,True,1.1171074000012595,800.0,50.0,33.0,0,False,2,up,0.16666666666666666,44,0,0.7625520000001416,0.7625520000001416,0.507421999995131,True,near-000,7,3,3,1.875,1.0,up,16,0
49,3,True,1.3135111999872606,800.0,100.0,50.0,0,False,1,up,0.16666666666666666,28,0,0.5044643000001088,0.5044643000001088,0.6044609000091441,True,near-rnd2,7,3,3,1.875,1.0,up,16,0
50,1,True,2.3708123000105843,800.0,800.0,50.0,0,False,0,up,0.16666666666666666,16,0,0.2840095999999903,0.2840095999999903,0.5875202000024728,True,near-rndm,8,3,3,1.875,1.0,up,16,0
51,2,True,1.4865487000206485,800.0,50.0,33.0,5,False,2,up,0.16666666666666666,44,0.09044460000586696,0.7614674000069499,0.8519120000128169,0.37438719999045134,True,near-080,8,5,4,3.125,0.5,up,16,0
52,2,True,1.4715573000139557,800.0,50.0,33.0,0,False,2,down,0.16666666666666666,28,0,0.4957055999839213,0.4957055999839213,1.170329100015806,False,near-000,8,1,0,0.625,0.5,down,8,0
53,3,True,0.7494233000034001,800.0,33.0,50.0,0,False,3,up,0.16666666666666666,68,0,1.1256647999980487,1.1256647999980487,0.7039019999792799,True,near-rnd3,8,1,1,0.625,1,up,4,0
54,1,True,1.570233600010397,800.0,50.0,33.0,15,False,2,down,0.16666666666666666,12,0.2473314999951981,0.2340224999934435,0.4813539999886416,6.215666100004455,False,near-240,8,1,0,0.625,0.5,down,8,0
55,2,True,1.0291116000153124,800.0,50.0,33.0,10,False,2,up,0.16666666666666666,28,0.16924290001043119,0.4989038000057917,0.6681467000162229,0.5019207000150345,True,near-160,8,4,3,2.5,0.5,up,16,0
56,2,True,1.2553559000079986,800.0,100.0,50.0,0,False,1,down,0.16666666666666666,12,0,0.23780950001673773,0.23780950001673773,1.0037101000198163,False,near-rnd2,8,1,0,0.625,0.5,down,8,0
57,3,True,1.1064893000002485,800.0,50.0,33.0,5,False,2,down,0.16666666666666666,28,0.1027856000000611,0.49997909998637624,0.6027646999864373,0.7469302999961656,True,near-080,9,1,1,0.625,0.5,down,8,0
58,4,True,1.3884524000168312,800.0,33.0,50.0,0,False,3,up,0.16666666666666666,68,0,1.1448971999925561,1.1448971999925561,0.6046506999991834,True,near-rnd3,9,2,2,1.25,1,up,4,0
59,3,True,1.2232389000128023,800.0,800.0,50.0,0,False,0,down,0.16666666666666666,0,0,0.04404819998308085,0.04404819998308085,1.0645851000153925,True,near-rndm,9,1,1,0.625,0.5,down,8,0
60,1,True,1.056811699992977,800.0,100.0,50.0,0,False,1,down,0.16666666666666666,12,0,0.235438499978045,0.235438499978045,0.9725730000063777,True,near-rnd2,9,2,1,1.25,1,down,8,0
61,3,True,1.0646625999943353,800.0,50.0,33.0,10,False,2,up,0.16666666666666666,28,0.17562410002574325,0.5000384000013582,0.6756625000271015,0.899476999999024,True,near-160,9,5,4,3.125,0.5,up,16,0
62,4,True,1.1146785999881104,800.0,50.0,33.0,15,False,2,down,0.16666666666666666,12,0.2616439000121318,0.25186210000538267,0.5135060000175145,0.7776842000021134,True,near-240,9,2,1,1.25,1,down,8,0
63,1,True,1.2287650000071153,800.0,50.0,33.0,0,False,2,down,0.16666666666666666,28,0,0.4847258999943733,0.4847258999943733,0.8310246999899391,True,near-000,9,2,1,1.25,1,down,8,0
64,3,True,1.7907361999968998,800.0,50.0,33.0,15,False,2,down,0.16666666666666666,12,0.2619083000172395,0.25004809998790734,0.5119564000051469,1.05217020001146,True,near-240,10,3,2,1.875,1,down,8,0
65,3,True,10.31763500001398,800.0,50.0,33.0,0,False,2,down,0.16666666666666666,28,0,0.5147089000092819,0.5147089000092819,0.8124630999809597,True,near-000,10,3,2,1.875,1,down,8,0
66,2,True,1.2629033000266645,800.0,100.0,50.0,0,False,1,down,0.16666666666666666,12,0,0.23287189999246038,0.23287189999246038,0.9277912999968976,False,near-rnd2,10,3,1,1.875,1,down,8,0
67,4,True,1.398769399995217,800.0,50.0,33.0,10,False,2,down,0.16666666666666666,12,0.1823898000002373,0.2743309999932535,0.4567207999934908,0.809077999991132,True,near-160,10,1,1,0.625,0.5,down,8,0
68,4,True,1.1712605000066105,800.0,33.0,50.0,0,False,3,up,0.16666666666666666,68,0,1.1421922000008635,1.1421922000008635,0.6712962999881711,True,near-rnd3,10,3,3,1.875,1,up,4,0
69,1,True,1.7740510000148788,800.0,50.0,33.0,5,False,2,down,0.16666666666666666,28,0.08944680000422522,0.490704600000754,0.5801514000049792,0.8139383000088856,False,near-080,10,2,1,1.25,1,down,8,0
70,2,True,1.0909508999902755,800.0,800.0,50.0,0,False,0,down,0.16666666666666666,0,0,0.029094600002281368,0.029094600002281368,1.5327962000155821,True,near-rndm,10,2,2,1.25,1,down,8,0
71,2,True,1.1398115000047255,800.0,50.0,33.0,10,False,2,down,0.16666666666666666,12,0.1708582999999635,0.24496099998941645,0.41581929998937994,1.0059234999935143,False,near-160,11,2,1,1.25,1,down,8,0
72,1,True,1.1506823000090662,800.0,100.0,50.0,0,False,1,down,0.16666666666666666,12,0,0.23474799998803064,0.23474799998803064,0.9146423999918625,False,near-rnd2,11,4,1,2.5,1,down,8,0
73,3,True,1.4560316000133753,800.0,50.0,33.0,15,False,2,down,0.16666666666666666,12,0.26712139998562634,0.25978210000903346,0.5269034999946598,1.2415056999889202,True,near-240,11,4,3,2.5,1,down,8,0
74,4,True,1.7501162000116892,800.0,33.0,50.0,0,False,3,down,0.16666666666666666,64,0,1.073338899994269,1.073338899994269,0.7836021000111941,False,near-rnd3,11,1,0,0.625,1,down,2,0
75,3,True,1.0355878999980632,800.0,50.0,33.0,5,False,2,down,0.16666666666666666,28,0.10118649998912588,0.5202019999851473,0.6213884999742731,0.9015010000148322,False,near-080,11,3,1,1.875,1,down,8,0
76,1,True,2.155898099998012,800.0,800.0,50.0,0,False,0,down,0.16666666666666666,0,0,0.02548060001572594,0.02548060001572594,1.1303985999838915,True,near-rndm,11,3,3,1.875,1,down,8,0
77,3,True,1.2076453999907244,800.0,50.0,33.0,0,False,2,down,0.16666666666666666,28,0,0.5111264000006486,0.5111264000006486,0.9064055999915581,True,near-000,11,4,3,2.5,1,down,8,0
78,2,True,1.1628727999923285,800.0,800.0,50.0,0,False,0,down,0.16666666666666666,0,0,0.027998400008073077,0.027998400008073077,0.9835927000094671,False,near-rndm,12,1,0,0.625,1,down,8,0
79,4,True,1.1797545999870636,800.0,100.0,50.0,0,False,1,up,0.16666666666666666,20,0,0.3877710999804549,0.3877710999804549,0.6841591999982484,True,near-rnd2,12,1,1,0.625,1,up,4,0
80,1,True,2.3659471000137273,800.0,50.0,33.0,5,False,2,down,0.16666666666666666,28,0.0865367999940645,0.49132480000844225,0.5778616000025067,0.7891521000128705,False,near-080,12,4,1,2.5,1,down,8,0
81,2,True,1.1525032999925315,800.0,33.0,50.0,0,False,3,down,0.16666666666666666,64,0,1.060926499980269,1.060926499980269,0.7250770000100601,True,near-rnd3,12,2,1,1.25,2,down,2,0
82,2,True,1.0016023000061978,800.0,50.0,33.0,0,False,2,down,0.16666666666666666,28,0,0.49105620000045747,0.49105620000045747,1.1918311000044923,False,near-000,12,5,3,3.125,1,down,8,0
83,2,True,1.3083620999823324,800.0,50.0,33.0,10,False,2,down,0.16666666666666666,12,0.17640669998945668,0.24490879999939352,0.4213154999888502,2.0503079000045545,True,near-160,12,3,2,1.875,1,down,8,0
84,2,True,1.0488441000052262,800.0,50.0,33.0,15,False,2,down,0.16666666666666666,12,0.2559898999752477,0.24882810001145117,0.5048179999866989,1.2813021000183653,False,near-240,12,5,3,3.125,1,down,8,0
85,4,True,1.194672499987064,800.0,100.0,50.0,0,False,1,up,0.16666666666666666,20,0,0.38300950001575984,0.38300950001575984,0.6326276999898255,True,near-rnd2,13,2,2,1.25,1,up,4,0
86,1,True,1.0619901000172831,800.0,50.0,33.0,10,False,2,down,0.16666666666666666,12,0.17364100000122562,0.23637589998543262,0.41001689998665825,1.192842999997083,True,near-160,13,4,3,2.5,1,down,8,0
87,1,True,1.0128315000038128,800.0,50.0,33.0,15,False,2,down,0.16666666666666666,12,0.2528368000057526,0.23746160001610406,0.49029840002185665,1.2266579000279307,False,near-240,13,6,3,3.75,1,down,8,0
88,2,True,1.0183427000010852,800.0,50.0,33.0,0,False,2,down,0.16666666666666666,28,0,0.4889227000239771,0.4889227000239771,0.9051473000145052,False,near-000,13,6,3,3.75,1,down,8,0
89,1,True,4.5575862000114284,800.0,50.0,33.0,5,False,2,up,0.16666666666666666,36,0.09269910000148229,0.6225707000121474,0.7152698000136297,0.6106647999840789,True,near-080,13,1,1,0.625,1,up,4,0
90,2,True,1.439003799983766,800.0,800.0,50.0,0,False,0,down,0.16666666666666666,0,0,0.032428600010462105,0.032428600010462105,1.1244926999788731,True,near-rndm,13,2,1,1.25,1,down,8,0
91,4,True,1.1775342999899294,800.0,33.0,50.0,0,False,3,down,0.16666666666666666,64,0,1.0799483000009786,1.0799483000009786,0.8999348999932408,False,near-rnd3,13,3,1,1.875,2,down,2,0
92,3,True,1.1067826999933459,800.0,800.0,50.0,0,False,0,down,0.16666666666666666,0,0,0.039190599985886365,0.039190599985886365,2.21578640001826,False,near-rndm,14,3,1,1.875,1,down,8,0
93,3,True,1.1206012000038754,800.0,50.0,33.0,10,False,2,down,0.16666666666666666,12,0.18561110002337955,0.24966469997889362,0.43527580000227317,1.1395133000041824,False,near-160,14,5,3,3.125,1,down,8,0
94,2,True,1.5121979000105057,800.0,50.0,33.0,0,False,2,down,0.16666666666666666,28,0,0.4923778000229504,0.4923778000229504,0.8819009999861009,False,near-000,14,7,3,4.375,1,down,8,0
95,1,True,0.8977857999852858,800.0,100.0,50.0,0,False,1,up,0.16666666666666666,20,0,0.36269790001097135,0.36269790001097135,0.7838746999914292,False,near-rnd2,14,3,2,1.875,1,up,4,0
96,1,True,1.4261509000207298,800.0,50.0,33.0,5,False,2,up,0.16666666666666666,36,0.09180510000442155,0.6120085000002291,0.7038136000046507,1.0392150999978185,False,near-080,14,2,1,1.25,1,up,4,0
97,3,True,0.9492628000152763,800.0,33.0,50.0,0,False,3,down,0.16666666666666666,64,0,1.061715699994238,1.061715699994238,1.026441399997566,False,near-rnd3,14,4,1,2.5,2,down,2,0
98,3,True,1.4492544999811798,800.0,50.0,33.0,15,False,2,down,0.16666666666666666,12,0.2684558999899309,0.24696899999980815,0.5154248999897391,0.7503031000087503,True,near-240,14,7,4,4.375,1,down,8,0
99,1,True,1.4631145000166725,800.0,50.0,33.0,0,False,2,up,0.16666666666666666,36,0,0.61631350000971,0.61631350000971,1.7033700000029057,False,near-000,15,1,0,0.625,1,up,4,0
100,1,True,1.0525863000075333,800.0,50.0,33.0,5,False,2,up,0.16666666666666666,36,0.09369900001911446,0.6203877000079956,0.71408670002711,0.6634358000010252,True,near-080,15,3,2,1.875,1,up,4,0
101,1,True,1.5280434000014793,800.0,33.0,50.0,0,False,3,down,0.16666666666666666,64,0,1.0434976999822538,1.0434976999822538,1.0412304000055883,False,near-rnd3,15,5,1,3.125,2,down,2,0
102,3,True,1.1814225999987684,800.0,50.0,33.0,10,False,2,down,0.16666666666666666,12,0.18505549998371862,0.24660140002379194,0.43165690000751056,1.203576800005976,False,near-160,15,6,3,3.75,1,down,8,0
103,1,True,1.453010199998971,800.0,800.0,50.0,0,False,0,down,0.16666666666666666,0,0,0.023213000007672235,0.023213000007672235,0.977817100007087,False,near-rndm,15,4,1,2.5,1,down,8,0
104,2,True,1.055986400024267,800.0,50.0,33.0,15,False,2,down,0.16666666666666666,12,0.25154549998114817,0.25168739998480305,0.5032328999659512,1.1055311000091024,True,near-240,15,8,5,5.0,1,down,8,0
105,1,True,1.3539504999935161,800.0,100.0,50.0,0,False,1,up,0.16666666666666666,20,0,0.36226799999712966,0.36226799999712966,0.6897440000029746,True,near-rnd2,15,4,3,2.5,1,up,4,0
106,2,True,1.0875982999859843,800.0,50.0,33.0,10,False,2,down,0.16666666666666666,12,0.175753400020767,0.24502810000558384,0.42078150002635084,0.7990287999855354,True,near-160,16,7,4,4.375,1,down,8,0
107,4,True,0.9622105000016745,800.0,50.0,33.0,0,False,2,up,0.16666666666666666,36,0,0.6531977999839,0.6531977999839,1.5013841000036336,True,near-000,16,2,1,1.25,1,up,4,0
108,3,True,1.0113874999806285,800.0,33.0,50.0,0,False,3,up,0.16666666666666666,66,0,1.0966474000015296,1.0966474000015296,0.6339044000196736,True,near-rnd3,16,1,1,0.625,2,up,1,0
109,2,True,1.0903304000094067,800.0,800.0,50.0,0,False,0,up,0.16666666666666666,8,0,0.16094879998126999,0.16094879998126999,0.6825875000213273,True,near-rndm,16,1,1,0.625,1,up,4,0
110,3,True,1.0862549000012223,800.0,100.0,50.0,0,False,1,up,0.16666666666666666,20,0,0.38022530000307597,0.38022530000307597,0.6462667000014335,True,near-rnd2,16,5,4,3.125,1,up,4,0
111,1,True,0.9906557000067551,800.0,50.0,33.0,5,False,2,up,0.16666666666666666,36,0.09126909999758936,0.6189546000096016,0.7102237000071909,0.6788588999770582,False,near-080,16,4,2,2.5,1,up,4,0
112,3,True,1.2549291999894194,800.0,50.0,33.0,15,False,2,down,0.16666666666666666,12,0.2545637000002898,0.264163500018185,0.5187272000184748,0.7539844999846537,False,near-240,16,9,5,5.625,1,down,8,1
113,2,True,1.2331898000265937,800.0,800.0,50.0,0,False,0,up,0.16666666666666666,8,0,0.16615299999830313,0.16615299999830313,0.6760159999830648,True,near-rndm,17,2,2,1.25,1,up,4,0
114,1,True,1.978786299994681,800.0,50.0,33.0,15,False,2,down,0.16666666666666666,12,0.2531162000086624,0.23153109999839216,0.4846473000070546,1.4179316999798175,True,near-240,17,10,6,6.25,1,down,8,1
115,1,True,1.6818000000203028,800.0,50.0,33.0,5,False,2,up,0.16666666666666666,36,0.08776340002077632,0.6183363000163808,0.7060997000371572,0.9209110999945551,False,near-080,17,5,2,3.125,1,up,4,0
116,3,True,3.241791500011459,800.0,50.0,33.0,10,False,2,down,0.16666666666666666,12,0.1817626999982167,0.255299999989802,0.4370626999880187,0.7411522000038531,False,near-160,17,8,4,5.0,1,down,8,0
117,2,True,1.2415159000083804,800.0,100.0,50.0,0,False,1,up,0.16666666666666666,20,0,0.3736376999877393,0.3736376999877393,0.6541302000114229,False,near-rnd2,17,6,4,3.75,1,up,4,0
118,1,True,1.062174699996831,800.0,33.0,50.0,0,False,3,up,0.16666666666666666,66,0,1.0788558000058401,1.0788558000058401,0.9431912000000011,False,near-rnd3,17,2,1,1.25,2,up,1,0
119,2,True,1.0175138000049628,800.0,50.0,33.0,0,False,2,up,0.16666666666666666,36,0,0.6202820999897085,0.6202820999897085,0.9817397999868263,True,near-000,17,3,2,1.875,1,up,4,0
120,3,True,1.0073103999893647,800.0,33.0,50.0,0,False,3,up,0.16666666666666666,66,0,1.1014137000020128,1.1014137000020128,0.29354939999757335,False,near-rnd3,18,3,1,1.875,2,up,1,0
121,1,True,2.423609599994961,800.0,800.0,50.0,0,False,0,up,0.16666666666666666,8,0,0.15705919999163598,0.15705919999163598,0.7011853999865707,True,near-rndm,18,3,3,1.875,1,up,4,0
122,4,True,1.045341199991526,800.0,100.0,50.0,0,False,1,up,0.16666666666666666,20,0,0.38643620000220835,0.38643620000220835,0.7490052999928594,True,near-rnd2,18,7,5,4.375,1,up,4,0
123,3,True,1.5579416999826208,800.0,50.0,33.0,0,False,2,up,0.16666666666666666,36,0,0.6428135000169277,0.6428135000169277,0.9139123000204563,True,near-000,18,4,3,2.5,1,up,4,0
124,1,True,1.5143919000111055,800.0,50.0,33.0,15,False,2,down,0.16666666666666666,12,0.24988409999059513,0.23305040001287125,0.4829345000034664,2.9766753999865614,True,near-240,18,11,7,6.875,1,down,8,1
125,2,True,1.5034805000177585,800.0,50.0,33.0,5,False,2,up,0.16666666666666666,40,0.0918387999990955,0.7031052999955136,0.7949440999946091,0.3384283999912441,True,near-080,18,1,1,0.625,1,up,4,0
126,4,True,2.4742748999851756,800.0,50.0,33.0,10,False,2,down,0.16666666666666666,12,0.18801779998466372,0.27338629998848774,0.46140409997315146,0.9872849000093993,False,near-160,18,9,4,5.625,1,down,8,1
127,3,True,0.9668532000214327,800.0,50.0,33.0,5,False,2,up,0.16666666666666666,40,0.09876510000322014,0.6995711000054143,0.7983362000086345,0.7896709000051487,True,near-080,19,2,2,1.25,1,up,4,0
128,3,True,1.2882092999934684,800.0,33.0,50.0,0,False,3,up,0.16666666666666666,66,0,1.0990074000146706,1.0990074000146706,0.6803828999982215,True,near-rnd3,19,4,2,2.5,2,up,1,0
129,2,True,1.0662528999964707,800.0,100.0,50.0,0,False,1,up,0.16666666666666666,20,0,0.3756441999867093,0.3756441999867093,2.7356896999990568,True,near-rnd2,19,8,6,5.0,1,up,4,0
130,2,True,0.9610557999985758,800.0,50.0,33.0,0,False,2,up,0.16666666666666666,36,0,0.6296672000025865,0.6296672000025865,0.9049077999952715,False,near-000,19,5,3,3.125,1,up,4,0
131,2,True,1.2924699000141118,800.0,50.0,33.0,10,False,2,up,0.16666666666666666,16,0.1756734999944456,0.30398799999966286,0.47966149999410845,0.7756855000043288,False,near-160,19,1,0,0.625,1,up,2,0
132,3,True,1.6415929999784566,800.0,50.0,33.0,15,False,2,down,0.16666666666666666,12,0.26422339997952804,0.24754169999505393,0.511765099974582,0.8049921999918297,False,near-240,19,12,7,7.5,1,down,8,1
133,2,True,1.4301392000052147,800.0,800.0,50.0,0,False,0,down,0.16666666666666666,4,0,0.10312580000027083,0.10312580000027083,0.7495728999783751,True,near-rndm,19,1,1,0.625,1,down,2,0
134,1,True,1.0825580000237096,800.0,800.0,50.0,0,False,0,down,0.16666666666666666,4,0,0.09223449998535216,0.09223449998535216,0.715449199982686,True,near-rndm,20,2,2,1.25,2,down,2,0
135,1,True,1.0082483000005595,800.0,50.0,33.0,10,False,2,up,0.16666666666666666,16,0.17117090002284385,0.29817900000489317,0.469349900027737,1.222969499998726,False,near-160,20,2,0,1.25,2,up,2,0
136,1,True,1.4685605999839026,800.0,100.0,50.0,0,False,1,up,0.16666666666666666,20,0,0.3649288000015076,0.3649288000015076,1.0098864999890793,True,near-rnd2,20,9,7,5.625,1,up,4,1
137,1,True,1.3064942000200972,800.0,50.0,33.0,15,False,2,down,0.16666666666666666,12,0.254163100005826,0.24143729999195784,0.4956003999977838,1.3249285999918357,False,near-240,20,13,7,8.125,1,down,8,1
138,1,True,1.105276699992828,800.0,33.0,50.0,0,False,3,up,0.16666666666666666,66,0,1.078634499979671,1.078634499979671,0.820321100007277,True,near-rnd3,20,5,3,3.125,2,up,1,0
139,1,True,1.0790871999925002,800.0,50.0,33.0,0,False,2,up,0.16666666666666666,36,0,0.6176810000033583,0.6176810000033583,0.6639384999871254,True,near-000,20,6,4,3.75,1,up,4,0
140,2,True,1.6224904999835417,800.0,50.0,33.0,5,False,2,up,0.16666666666666666,40,0.09682140001677908,0.6846590999921318,0.7814805000089109,0.6707946000096854,True,near-080,20,3,3,1.875,1,up,4,0
141,1,True,1.1200142999878153,800.0,50.0,33.0,5,False,2,down,0.16666666666666666,36,0.09166609999374487,0.6141435000172351,0.7058096000109799,0.723058100003982,False,near-080,21,1,0,0.625,1,down,2,0
142,1,True,1.2285061000147834,800.0,50.0,33.0,10,False,2,up,0.16666666666666666,16,0.17310060001909733,0.30249309999635443,0.47559370001545176,0.8295085000281688,False,near-160,21,3,0,1.875,2,up,2,0
143,3,True,1.3241982999898028,800.0,50.0,33.0,0,False,2,up,0.16666666666666666,36,0,0.6211136000056285,0.6211136000056285,0.712158400012413,True,near-000,21,7,5,4.375,1,up,4,0
144,1,True,5.789651200000662,800.0,50.0,33.0,15,False,2,up,0.16666666666666666,16,0.2541386999946553,0.2919135999982245,0.5460522999928799,0.7545906000013929,True,near-240,21,1,1,0.625,1,up,2,0
145,1,True,1.581733799976064,800.0,100.0,50.0,0,False,1,down,0.16666666666666666,18,0,0.32256539998343214,0.32256539998343214,0.5601152000017464,True,near-rnd2,21,1,1,0.625,1,down,1,0
146,2,True,1.5538912000192795,800.0,800.0,50.0,0,False,0,down,0.16666666666666666,4,0,0.10010040001361631,0.10010040001361631,0.5976471999892965,True,near-rndm,21,3,3,1.875,2,down,2,0
147,3,True,1.2616096000128891,800.0,33.0,50.0,0,False,3,up,0.16666666666666666,66,0,1.0985360000049695,1.0985360000049695,0.7784248999960255,True,near-rnd3,21,6,4,3.75,2,up,1,0
148,3,True,1.3240038999938406,800.0,50.0,33.0,0,False,2,up,0.16666666666666666,36,0,0.6326381999824662,0.6326381999824662,0.5578648000082467,False,near-000,22,8,5,5.0,1,up,4,0
149,2,True,1.9180895000172313,800.0,50.0,33.0,15,False,2,up,0.16666666666666666,16,0.2549906999920495,0.30819850001716986,0.5631892000092193,0.7568206999858376,False,near-240,22,2,1,1.25,2,up,2,0
150,1,True,1.6232287999882828,800.0,800.0,50.0,0,False,0,down,0.16666666666666666,4,0,0.09074329998111352,0.09074329998111352,0.6258019999950193,True,near-rndm,22,4,4,2.5,2,down,2,0
151,3,True,1.2647285999846645,800.0,100.0,50.0,0,False,1,down,0.16666666666666666,18,0,0.3547742000082508,0.3547742000082508,0.8204492000222672,False,near-rnd2,22,2,1,1.25,2,down,1,0
152,2,True,1.195092099980684,800.0,33.0,50.0,0,False,3,up,0.16666666666666666,66,0,2.748843899986241,2.748843899986241,0.6398424000071827,True,near-rnd3,22,7,5,4.375,2,up,1,0
153,2,True,1.9817244999867398,800.0,50.0,33.0,5,False,2,down,0.16666666666666666,36,0.09381500000017695,0.622863700002199,0.716678700002376,0.6589703000208829,True,near-080,22,2,1,1.25,2,down,2,0
154,3,True,2.69119299997692,800.0,50.0,33.0,10,False,2,up,0.16666666666666666,16,0.18167330001597293,0.3254722999990918,0.5071456000150647,1.013578400015831,False,near-160,22,4,0,2.5,2,up,2,0
155,3,True,1.224074700003257,800.0,50.0,33.0,10,False,2,up,0.16666666666666666,18,0.18801969999913126,0.35319959998014383,0.5412192999792751,0.599702100007562,True,near-160,23,1,1,0.625,2,up,2,0
156,1,True,1.601241399999708,800.0,50.0,33.0,0,False,2,up,0.16666666666666666,36,0,0.6187973000050988,0.6187973000050988,0.7146802000061143,False,near-000,23,9,5,5.625,1,up,4,1
157,2,True,1.1257619000098202,800.0,800.0,50.0,0,False,0,down,0.16666666666666666,4,0,0.09829429999808781,0.09829429999808781,0.9209085000038613,True,near-rndm,23,5,5,3.125,2,down,2,0
158,4,True,1.3039566999941599,800.0,50.0,33.0,15,False,2,up,0.16666666666666666,16,0.2705405000015162,0.3149488999915775,0.5854893999930937,2.1310533999931067,True,near-240,23,3,2,1.875,2,up,2,0
159,2,True,1.5089605000102893,800.0,100.0,50.0,0,False,1,down,0.16666666666666666,18,0,0.3462172000145074,0.3462172000145074,0.5640091000241227,False,near-rnd2,23,3,1,1.875,2,down,1,0
160,4,True,1.2671820999821648,800.0,33.0,50.0,0,False,3,up,0.16666666666666666,66,0,1.0964241000183392,1.0964241000183392,0.4342489000118803,True,near-rnd3,23,8,6,5.0,2,up,1,0
161,1,True,3.0170027000131086,800.0,50.0,33.0,5,False,2,down,0.16666666666666666,36,0.09256580000510439,0.6204492999822833,0.7130150999873877,0.73130630000378,True,near-080,23,3,2,1.875,2,down,2,0
162,1,True,4.444524299993645,800.0,50.0,33.0,15,False,2,up,0.16666666666666666,16,0.24756290001096204,0.2979501999798231,0.5455130999907851,3.4112939999904484,False,near-240,24,4,2,2.5,2,up,2,0
163,1,True,1.7777559999958612,800.0,800.0,50.0,0,False,0,down,0.16666666666666666,4,0,0.09143229998880997,0.09143229998880997,0.8098792000091635,True,near-rndm,24,6,6,3.75,2,down,2,0
164,4,True,2.076778100017691,800.0,50.0,33.0,0,False,2,up,0.16666666666666666,36,0,0.6386879000056069,0.6386879000056069,1.3338489000161644,False,near-000,24,10,5,6.25,1,up,4,1
165,1,True,3.194914299994707,800.0,50.0,33.0,5,False,2,down,0.16666666666666666,36,0.08984719999716617,0.6133237999747507,0.7031709999719169,0.55035630002385,True,near-080,24,4,3,2.5,2,down,2,0
166,1,True,1.2752367999928538,800.0,100.0,50.0,0,False,1,down,0.16666666666666666,18,0,0.3304294999979902,0.3304294999979902,0.8476078999810852,False,near-rnd2,24,4,1,2.5,2,down,1,0
167,1,True,2.4895298999908846,800.0,50.0,33.0,10,False,2,up,0.16666666666666666,18,0.16756010000244714,0.3302988999930676,0.49785899999551475,0.9812336000031792,False,near-160,24,2,1,1.25,2,up,2,0
168,3,True,0.8927544000034686,800.0,33.0,50.0,0,False,3,up,0.16666666666666666,66,0,1.094371199986199,1.094371199986199,0.9008802000025753,True,near-rnd3,24,9,7,5.625,2,up,1,1
169,4,True,1.0485740000149235,800.0,100.0,50.0,0,False,1,down,0.16666666666666666,18,0,0.3599496000097133,0.3599496000097133,0.7549316000076942,False,near-rnd2,25,5,1,3.125,2,down,1,0
170,1,True,1.94122339997557,800.0,50.0,33.0,0,False,2,up,0.16666666666666666,38,0,0.6433290999848396,0.6433290999848396,0.8283270999963861,True,near-000,25,1,1,0.625,1,up,2,0
171,3,True,0.9205970999901183,800.0,50.0,33.0,15,False,2,up,0.16666666666666666,16,0.26302419998683035,0.31232680001994595,0.5753510000067763,0.7727507000090554,True,near-240,25,5,3,3.125,2,up,2,0
172,1,True,1.5232445000146981,800.0,50.0,33.0,5,False,2,down,0.16666666666666666,36,0.08782910002628341,0.6246039999823552,0.7124331000086386,0.6327596000046469,True,near-080,25,5,4,3.125,2,down,2,0
173,2,True,1.245866900018882,800.0,800.0,50.0,0,False,0,down,0.16666666666666666,2,0,0.0690953999874182,0.0690953999874182,0.7877845000184607,True,near-rndm,25,1,1,0.625,2,down,2,0
174,3,True,1.1090488000190817,800.0,50.0,33.0,10,False,2,up,0.16666666666666666,18,0.17420310000306927,0.33939769997959957,0.5136007999826688,0.7542988999921363,False,near-160,25,3,1,1.875,2,up,2,0
175,3,True,1.2615681999886874,800.0,33.0,50.0,0,False,3,up,0.16666666666666666,66,0,1.0970182000019122,1.0970182000019122,0.5337515999854077,True,near-rnd3,25,10,8,6.25,2,up,1,1
176,2,True,0.9815098999824841,800.0,50.0,33.0,15,False,2,up,0.16666666666666666,16,0.26158180000493303,0.3165801000141073,0.5781619000190403,0.7674127999925986,True,near-240,26,6,4,3.75,2,up,2,0
177,4,True,2.7560628000064753,800.0,50.0,33.0,5,False,2,down,0.16666666666666666,36,0.11560340001597069,0.6591352999967057,0.7747387000126764,0.4578326999908313,True,near-080,26,6,5,3.75,2,down,2,0
178,1,True,1.1858934999909252,800.0,100.0,50.0,0,False,1,up,0.16666666666666666,19,0,0.3439844000095036,0.3439844000095036,0.8919183000107296,False,near-rnd2,26,1,0,0.625,2,up,1,0
179,1,True,1.4469282000209205,800.0,50.0,33.0,0,False,2,up,0.16666666666666666,38,0,0.6457851000013761,0.6457851000013761,0.8235398000106215,False,near-000,26,2,1,1.25,2,up,2,0
180,1,True,1.7321872000175063,800.0,50.0,33.0,10,False,2,up,0.16666666666666666,18,0.2517494000203442,0.3373528999800328,0.589102300000377,0.6161542999907397,True,near-160,26,4,2,2.5,2,up,2,0
181,4,True,2.563408200017875,800.0,800.0,50.0,0,False,0,down,0.16666666666666666,2,0,0.08831279998412356,0.08831279998412356,0.6958186000119895,True,near-rndm,26,2,2,1.25,2,down,2,0
182,1,True,1.5756161000172142,800.0,33.0,50.0,0,False,3,up,0.16666666666666666,66,0,1.0778944000194315,1.0778944000194315,1.0278134999971371,True,near-rnd3,26,11,9,6.875,2,up,1,1
183,1,True,1.224781199998688,800.0,50.0,33.0,5,False,2,down,0.16666666666666666,36,0.09511460000067018,0.61714759998722,0.7122621999878902,0.8338463999971282,True,near-080,27,7,6,4.375,2,down,2,0
184,1,True,1.3203649000206497,800.0,50.0,33.0,15,False,2,up,0.16666666666666666,16,0.25215710001066327,0.2970276999985799,0.5491848000092432,0.7667179999989457,True,near-240,27,7,5,4.375,2,up,2,0
185,4,True,1.3448829999833833,800.0,800.0,50.0,0,False,0,down,0.16666666666666666,2,0,0.0876556999864988,0.0876556999864988,0.6029019000125118,True,near-rndm,27,3,3,1.875,2,down,2,0
186,3,True,1.2624294999986887,800.0,50.0,33.0,10,False,2,up,0.16666666666666666,18,0.17964330001268536,0.35925539999152534,0.5388987000042107,0.8695714000205044,False,near-160,27,5,2,3.125,2,up,2,0
187,2,True,1.1018283999874257,800.0,100.0,50.0,0,False,1,up,0.16666666666666666,19,0,0.34871750001912005,0.34871750001912005,1.62354490000871,True,near-rnd2,27,2,1,1.25,3,up,1,0
188,1,True,0.9770637999754399,800.0,50.0,33.0,0,False,2,up,0.16666666666666666,38,0,0.6444652999925893,0.6444652999925893,0.717249700013781,True,near-000,27,3,2,1.875,2,up,2,0
189,2,True,0.9466428000014275,800.0,50.0,33.0,0,False,2,up,0.16666666666666666,38,0,0.6476009000034537,0.6476009000034537,0.7155948999861721,True,near-000,28,4,3,2.5,2,up,2,0
190,1,True,2.0228497000061907,800.0,100.0,50.0,0,False,1,up,0.16666666666666666,19,0,0.3433802999788895,0.3433802999788895,0.6015871999843512,True,near-rnd2,28,3,2,1.875,3,up,1,0
191,2,True,0.8208264000131749,800.0,800.0,50.0,0,False,0,down,0.16666666666666666,2,0,0.07313559998874553,0.07313559998874553,0.6105375000042841,True,near-rndm,28,4,4,2.5,2,down,2,0
192,2,True,1.3608124000020325,800.0,50.0,33.0,5,False,2,down,0.16666666666666666,36,0.09228530002292246,0.633761000004597,0.7260463000275195,0.39010240000789054,False,near-080,28,8,6,5.0,2,down,2,0
193,2,True,1.0048919999971986,800.0,50.0,33.0,10,False,2,up,0.16666666666666666,18,0.1735301000007894,0.3351008999743499,0.5086309999751393,0.7106853000004776,True,near-160,28,6,3,3.75,2,up,2,0
194,3,True,0.7545804999826942,800.0,50.0,33.0,15,False,2,up,0.16666666666666666,16,0.2562168999866117,0.32068299999809824,0.5768998999847099,0.7098690000129864,False,near-240,28,8,5,5.0,2,up,2,0
195,1,True,1.5822883000073489,800.0,50.0,33.0,0,False,2,up,0.16666666666666666,38,0,0.6478517000214197,0.6478517000214197,0.9708160000154749,False,near-000,29,5,3,3.125,2,up,2,0
196,1,True,1.516238299984252,800.0,100.0,50.0,0,False,1,up,0.16666666666666666,19,0,0.34520849998807535,0.34520849998807535,0.5567423999891616,True,near-rnd2,29,4,3,2.5,3,up,1,0
197,2,True,1.146374999982072,800.0,50.0,33.0,10,False,2,up,0.16666666666666666,18,0.1767161000170745,0.33330559998285025,0.5100216999999247,1.1681034000066575,False,near-160,29,7,3,4.375,2,up,2,0
198,1,True,1.5213609999918845,800.0,50.0,33.0,5,False,2,down,0.16666666666666666,36,0.09422940001240931,0.613479699997697,0.7077091000101063,0.4195173000043724,True,near-080,29,9,7,5.625,2,down,2,1
199,1,True,1.4489056000020355,800.0,50.0,33.0,15,False,2,up,0.16666666666666666,16,0.25117919998592697,0.30205080000450835,0.5532299999904353,0.8958743000112008,False,near-240,29,9,5,5.625,2,up,2,1
200,1,True,1.7428561999986414,800.0,800.0,50.0,0,False,0,down,0.16666666666666666,2,0,0.06376489999820478,0.06376489999820478,0.6690902999835089,True,near-rndm,29,5,5,3.125,2,down,2,0
201,3,True,1.0161260000022594,800.0,100.0,50.0,0,False,1,up,0.16666666666666666,19,0,0.3629402999940794,0.3629402999940794,0.6980805000057444,True,near-rnd2,30,5,4,3.125,3,up,1,0
202,3,True,1.050121299980674,800.0,50.0,33.0,0,False,2,up,0.16666666666666666,38,0,0.6600689000042621,0.6600689000042621,0.5484522999904584,True,near-000,30,6,4,3.75,2,up,2,0
203,1,True,1.429884100012714,800.0,50.0,33.0,5,False,2,down,0.16666666666666666,36,0.09202320000622422,0.6115199999767356,0.7035431999829598,0.4796939000079874,True,near-080,30,10,8,6.25,2,down,2,1
204,3,True,1.1994162000191864,800.0,50.0,33.0,15,False,2,up,0.16666666666666666,16,0.2638779999979306,0.32108390002395026,0.5849619000218809,0.5108977999771014,True,near-240,30,10,6,6.25,2,up,2,1
205,1,True,2.102035899995826,800.0,50.0,33.0,10,False,2,up,0.16666666666666666,18,0.1691636000177823,0.33747900000889786,0.5066426000266802,0.9128443000081461,False,near-160,30,8,3,5.0,2,up,2,0
206,2,True,1.4291465999849606,800.0,800.0,50.0,0,False,0,down,0.16666666666666666,2,0,0.06776990002254024,0.06776990002254024,0.6015209999750368,True,near-rndm,30,6,6,3.75,2,down,2,0
207,4,True,1.0010835999855772,800.0,50.0,33.0,10,False,2,up,0.16666666666666666,18,0.19201389999943785,0.3497967000002973,0.5418105999997351,0.706406799989054,False,near-160,31,9,3,5.625,2,up,2,1
208,1,True,1.2137712000112515,800.0,50.0,33.0,5,False,2,down,0.16666666666666666,36,0.0914760000014212,0.6174900000041816,0.7089660000056028,0.6527773000125308,True,near-080,31,11,9,6.875,2,down,2,1
209,2,True,1.6546884000126738,800.0,100.0,50.0,0,False,1,up,0.16666666666666666,19,0,0.35866910000913776,0.35866910000913776,0.47406259999843314,True,near-rnd2,31,6,5,3.75,3,up,1,0
210,2,True,1.3606242000241764,800.0,800.0,50.0,0,False,0,down,0.16666666666666666,0,0,0.03295849999994971,0.03295849999994971,0.8489257999754045,True,near-rndm,31,1,1,0.625,2,down,2,0
211,2,True,1.353037900000345,800.0,50.0,33.0,0,False,2,up,0.16666666666666666,38,0,0.6632255000004079,0.6632255000004079,0.5927185000036843,False,near-000,31,7,4,4.375,2,up,2,0
212,1,True,1.635103499982506,800.0,50.0,33.0,15,False,2,up,0.16666666666666666,16,0.25162060000002384,0.373404699988896,0.6250252999889199,0.5126894999993965,False,near-240,31,11,6,6.875,2,up,2,1
213,2,True,1.202931100007845,800.0,800.0,50.0,0,False,0,down,0.16666666666666666,0,0,0.03077459998894483,0.03077459998894483,1.2238417000044137,False,near-rndm,32,2,1,1.25,2,down,2,0
214,1,True,1.152602600021055,800.0,100.0,50.0,0,False,1,up,0.16666666666666666,19,0,0.3474117000005208,0.3474117000005208,0.6820456999994349,False,near-rnd2,32,7,5,4.375,3,up,1,0
215,4,True,2.7858156000147574,800.0,50.0,33.0,10,False,2,up,0.16666666666666666,19,0.18640239999513142,0.38740059998235665,0.5738029999774881,0.48250139999436215,True,near-160,32,1,1,0.625,2,up,1,0
216,2,True,1.4692556999798398,800.0,50.0,33.0,5,False,2,down,0.16666666666666666,35,0.09422759999870323,0.6121234000020195,0.7063510000007227,0.4256341999862343,False,near-080,32,1,0,0.625,2,down,1,0
217,4,True,1.1343590999895241,800.0,50.0,33.0,0,False,2,up,0.16666666666666666,38,0,0.6692351999809034,0.6692351999809034,2.95624199998565,True,near-000,32,8,5,5.0,2,up,2,0
218,3,True,1.1264210999943316,800.0,50.0,33.0,15,False,2,up,0.16666666666666666,16,0.2600232000113465,0.31709460000274703,0.5771178000140935,0.634715199994389,True,near-240,32,12,7,7.5,2,up,2,1
219,1,True,1.214031800016528,800.0,100.0,50.0,0,False,1,up,0.16666666666666666,19,0,0.34282119999988936,0.34282119999988936,1.7016700000094716,False,near-rnd2,33,8,5,5.0,3,up,1,0
220,2,True,0.8559405000123661,800.0,50.0,33.0,0,False,2,up,0.16666666666666666,38,0,0.6634153999912087,0.6634153999912087,0.612803600000916,True,near-000,33,9,6,5.625,2,up,2,1
221,2,True,1.262067500007106,800.0,50.0,33.0,5,False,2,down,0.16666666666666666,35,0.09672719999798574,0.619966199999908,0.7166933999978937,0.5946706999966409,True,near-080,33,2,1,1.25,2,down,1,0
222,3,True,0.9237667999987025,800.0,50.0,33.0,15,False,2,up,0.16666666666666666,16,0.26947550001204945,0.3129834999854211,0.5824589999974705,0.7125969000044279,True,near-240,33,13,8,8.125,2,up,2,1
223,3,True,1.152380000014091,800.0,50.0,33.0,10,False,2,up,0.16666666666666666,19,0.19176049999077804,0.3660256000002846,0.5577860999910627,1.6346309000218753,True,near-160,33,2,2,1.25,2,up,1,0
224,2,True,1.0707821999967564,800.0,800.0,50.0,0,False,0,down,0.16666666666666666,0,0,0.03123390002292581,0.03123390002292581,0.9139749000023585,True,near-rndm,33,3,2,1.875,2,down,2,0
225,2,True,0.9708029000030365,800.0,50.0,33.0,10,False,2,up,0.16666666666666666,19,0.1766639999987092,0.3593455000082031,0.5360095000069123,0.7479417000140529,False,near-160,34,3,2,1.875,2,up,1,0
226,3,True,1.3880988000018988,800.0,50.0,33.0,0,False,2,up,0.16666666666666666,38,0,0.6658698999963235,0.6658698999963235,0.5974314000050072,True,near-000,34,10,7,6.25,2,up,2,1
227,1,True,1.2890053000010084,800.0,50.0,33.0,15,False,2,up,0.16666666666666666,16,0.24947390001034364,0.2990971000108402,0.5485710000211839,1.313459500001045,False,near-240,34,14,8,8.75,2,up,2,1
228,1,True,1.0991663000022527,800.0,800.0,50.0,0,False,0,down,0.16666666666666666,0,0,0.02667780002229847,0.02667780002229847,1.0889908999961335,False,near-rndm,34,4,2,2.5,2,down,2,0
229,3,True,1.1552293999993708,800.0,50.0,33.0,5,False,2,down,0.16666666666666666,35,0.09531419997802004,0.6222729999863077,0.7175871999643277,0.20375159999821335,False,near-080,34,3,1,1.875,2,down,1,0
230,3,True,1.0350371999957133,800.0,50.0,33.0,15,False,2,up,0.16666666666666666,16,0.27036180000868626,0.3082233999739401,0.5785851999826264,0.4954655999899842,False,near-240,35,15,8,9.375,2,up,2,1
231,3,True,2.229174799984321,800.0,50.0,33.0,0,False,2,up,0.16666666666666666,38,0,0.6689223000139464,0.6689223000139464,0.5027529000071809,True,near-000,35,11,8,6.875,2,up,2,1
232,2,True,1.8141660999972373,800.0,800.0,50.0,0,False,0,down,0.16666666666666666,0,0,0.0315763000107836,0.0315763000107836,1.4906797999865375,False,near-rndm,35,5,2,3.125,2,down,2,0
233,2,True,0.9295937000133563,800.0,50.0,33.0,10,False,2,up,0.16666666666666666,19,0.1701018000021577,0.3528416999906767,0.5229434999928344,7.218745799997123,False,near-160,35,4,2,2.5,2,up,1,0
234,3,True,1.1446743999840692,800.0,50.0,33.0,5,False,2,down,0.16666666666666666,35,0.09936949997791089,0.6270371999999043,0.7264066999778152,0.467077999986941,True,near-080,35,4,2,2.5,2,down,1,0
235,3,True,1.433188599999994,800.0,50.0,33.0,10,False,2,up,0.16666666666666666,19,0.2031964999914635,0.3651917999959551,0.5683882999874186,0.7193076999974437,True,near-160,36,5,3,3.125,2,up,1,0
236,2,True,1.0991151999915019,800.0,50.0,33.0,5,False,2,down,0.16666666666666666,35,0.1009014000010211,0.6218208000063896,0.7227222000074107,0.6633958999882452,True,near-080,36,5,3,3.125,2,down,1,0
237,2,True,1.015345400024671,800.0,800.0,50.0,0,False,0,down,0.16666666666666666,0,0,0.03169720000005327,0.03169720000005327,0.7604431000072509,True,near-rndm,36,6,3,3.75,2,down,2,0
238,3,True,1.7839515999949072,800.0,50.0,33.0,15,False,2,up,0.16666666666666666,16,0.2570834999787621,0.35968639998463914,0.6167698999634013,0.7500331999908667,False,near-240,36,16,8,10.0,2,up,2,1
239,1,True,1.1714421999931801,800.0,50.0,33.0,0,False,2,up,0.16666666666666666,38,0,0.6428315000084694,0.6428315000084694,0.7437714000116102,True,near-000,36,12,9,7.5,2,up,2,1
240,1,True,1.7816588999994565,800.0,50.0,33.0,0,False,2,up,0.16666666666666666,38,0,0.6434814000094775,0.6434814000094775,0.7024684000061825,True,near-000,37,13,10,8.125,2,up,2,1
241,1,True,1.507723899994744,800.0,50.0,33.0,5,False,2,down,0.16666666666666666,35,0.08964370001922362,0.6035307999991346,0.6931745000183582,0.6259763999842107,True,near-080,37,6,4,3.75,2,down,1,0
242,3,True,1.6208560999948531,800.0,50.0,33.0,15,False,2,up,0.16666666666666666,16,0.2632084999931976,0.3185844999970868,0.5817929999902844,0.5789461999956984,True,near-240,37,17,9,10.625,2,up,2,2
243,1,True,1.335355499992147,800.0,800.0,50.0,0,False,0,down,0.16666666666666666,0,0,0.027076600003056228,0.027076600003056228,1.0905806999944616,False,near-rndm,37,7,3,4.375,2,down,2,0
244,2,True,1.0476173000060953,800.0,50.0,33.0,10,False,2,up,0.16666666666666666,19,0.32947820000117645,0.3616911999997683,0.6911694000009447,0.5882627000100911,True,near-160,37,6,4,3.75,2,up,1,0
245,2,True,1.275590299977921,800.0,800.0,50.0,0,False,0,down,0.16666666666666666,0,0,0.026976199995260686,0.026976199995260686,0.8556417000072543,False,near-rndm,38,8,3,5.0,2,down,2,0
246,2,True,1.167578400025377,800.0,50.0,33.0,0,False,2,up,0.16666666666666666,38,0,0.6475672999804374,0.6475672999804374,0.9302719999977853,True,near-000,38,14,11,8.75,2,up,2,1
247,3,True,1.8123593000054825,800.0,50.0,33.0,15,False,2,up,0.16666666666666666,16,0.2562861999904271,0.31954339999356307,0.5758295999839902,0.6331999000103679,True,near-240,38,18,10,11.25,2,up,2,2
248,3,True,1.583074399997713,800.0,50.0,33.0,5,False,2,down,0.16666666666666666,35,0.09947220000321977,0.6321358999994118,0.7316081000026315,0.4435397000052035,True,near-080,38,7,5,4.375,2,down,1,0
249,4,True,1.1944885000120848,800.0,50.0,33.0,10,False,2,up,0.16666666666666666,19,0.19189430002006702,0.37564640000346117,0.5675407000235282,0.7874430000083521,True,near-160,38,7,5,4.375,2,up,1,0
250,1,True,1.592584900005022,800.0,800.0,50.0,0,False,0,down,0.16666666666666666,0,0,0.025710799993248656,0.025710799993248656,0.9085199999972247,False,near-rndm,39,9,3,5.625,2,down,2,1
251,3,True,1.4439634000009391,800.0,50.0,33.0,10,False,2,up,0.16666666666666666,19,0.18599639998865314,0.3673887000186369,0.55338510000729,0.6337072000023909,True,near-160,39,8,6,5.0,2,up,1,0
252,2,True,0.8515148999867961,800.0,50.0,33.0,5,False,2,down,0.16666666666666666,35,0.09225230000447482,0.6163047000009101,0.7085570000053849,0.5466801000002306,True,near-080,39,8,6,5.0,2,down,1,0
253,4,True,1.4888411999854725,800.0,50.0,33.0,15,False,2,up,0.16666666666666666,16,0.27516380001907237,0.3268491000053473,0.6020129000244197,0.9427736999932677,False,near-240,39,19,10,11.875,2,up,2,2
254,1,True,1.407878800004255,800.0,50.0,33.0,0,False,2,down,0.16666666666666666,37,0,0.6248506999982055,0.6248506999982055,0.5201225000200793,True,near-000,39,1,1,0.625,2,down,1,0
255,2,True,0.8163382000057027,800.0,50.0,33.0,15,False,2,up,0.16666666666666666,16,0.2610696999763604,0.30212269999901764,0.5631923999753781,0.6003413000144064,True,near-240,40,20,11,12.5,2,up,2,2
256,2,True,1.237458899995545,800.0,800.0,50.0,0,False,0,up,0.16666666666666666,1,0,0.05243410001276061,0.05243410001276061,0.7614364000037313,True,near-rndm,40,1,1,0.625,2,up,1,0
257,3,True,1.0636909000168089,800.0,50.0,33.0,10,False,2,up,0.16666666666666666,19,0.18921829998726025,0.35894740000367165,0.5481656999909319,0.5170047999999952,False,near-160,40,9,6,5.625,2,up,1,1
258,1,True,1.252043800021056,800.0,50.0,33.0,0,False,2,down,0.16666666666666666,37,0,0.6348621000070125,0.6348621000070125,0.6879976000054739,True,near-000,40,2,2,1.25,3,down,1,0
259,2,True,1.8220696999924257,800.0,50.0,33.0,5,False,2,down,0.16666666666666666,35,0.09289870000793599,0.6193952999892645,0.7122939999972004,0.5475595000025351,True,near-080,40,9,7,5.625,2,down,1,1
260,3,True,1.1070030000119004,800.0,50.0,33.0,5,False,2,down,0.16666666666666666,35,0.10347820000606589,0.633663799992064,0.7371419999981299,0.5275665000081062,True,near-080,41,10,8,6.25,2,down,1,1
261,4,True,1.1343568000011146,800.0,50.0,33.0,15,False,2,up,0.16666666666666666,16,0.2566186000185553,0.33836120000341907,0.5949798000219744,0.5173464999825228,True,near-240,41,21,12,13.125,2,up,2,2
262,2,True,1.2211676000151783,800.0,50.0,33.0,0,False,2,down,0.16666666666666666,37,0,0.6385410999937449,0.6385410999937449,0.5532007000001613,True,near-000,41,3,3,1.875,3,down,1,0
263,3,True,1.6076770999934524,800.0,800.0,50.0,0,False,0,up,0.16666666666666666,1,0,0.07297919999109581,0.07297919999109581,0.726395900011994,True,near-rndm,41,2,2,1.25,3,up,1,0
264,1,True,1.3160540999961086,800.0,50.0,33.0,10,False,2,up,0.16666666666666666,19,0.17234889999963343,0.34929870002088137,0.5216476000205148,1.6356892000185326,False,near-160,41,10,6,6.25,2,up,1,1
265,2,True,1.051163500000257,800.0,50.0,33.0,10,False,2,up,0.16666666666666666,19,0.17782479999004863,0.3497870000137482,0.5276118000037968,0.8622239999822341,False,near-160,42,11,6,6.875,2,up,1,1
266,2,True,3.5571251999936067,800.0,50.0,33.0,0,False,2,down,0.16666666666666666,37,0,0.6356173000240233,0.6356173000240233,0.5908133000193629,False,near-000,42,4,3,2.5,3,down,1,0
267,2,True,1.0488157999934629,800.0,800.0,50.0,0,False,0,up,0.16666666666666666,1,0,0.058036600006744266,0.058036600006744266,0.643998699990334,True,near-rndm,42,3,3,1.875,3,up,1,0
268,4,True,1.087907200009795,800.0,50.0,33.0,5,False,2,down,0.16666666666666666,35,0.11712979999720119,0.6375949000066612,0.7547247000038624,0.8209628000040539,False,near-080,42,11,8,6.875,2,down,1,1
269,3,True,1.1811612000165042,800.0,50.0,33.0,15,False,2,up,0.16666666666666666,16,0.26113520000944845,0.32318669999949634,0.5843219000089448,1.3331551000010222,False,near-240,42,22,12,13.75,2,up,2,2
270,4,True,0.7538086999848019,800.0,50.0,33.0,10,False,2,up,0.16666666666666666,19,0.19474139998783357,0.3823889000050258,0.5771302999928594,0.8593920000130311,True,near-160,43,12,7,7.5,2,up,1,1
271,1,True,1.6042911999975331,800.0,50.0,33.0,5,False,2,down,0.16666666666666666,35,0.08804879998206161,0.5986063999880571,0.6866551999701187,0.7773650999879465,False,near-080,43,12,8,7.5,2,down,1,1
272,1,True,1.5831645000143908,800.0,50.0,33.0,0,False,2,down,0.16666666666666666,37,0,0.6308519000012893,0.6308519000012893,1.6916258999845013,True,near-000,43,5,4,3.125,3,down,1,0
273,1,True,1.5836583000200335,800.0,50.0,33.0,15,False,2,up,0.16666666666666666,16,0.2501079000066966,0.3014973999815993,0.5516052999882959,1.3742877000186127,True,near-240,43,23,13,14.375,2,up,2,2
274,1,True,1.163762099982705,800.0,800.0,50.0,0,False,0,up,0.16666666666666666,1,0,0.04892130001098849,0.04892130001098849,0.7780328000080772,True,near-rndm,43,4,4,2.5,3,up,1,0
275,4,True,1.6350865999993403,800.0,800.0,50.0,0,False,0,up,0.16666666666666666,1,0,0.0695440000272356,0.0695440000272356,0.8569742999970913,True,near-rndm,44,5,5,3.125,3,up,1,0
276,3,True,0.8732886999787297,800.0,50.0,33.0,5,False,2,down,0.16666666666666666,35,0.11399569999775849,0.6175804999948014,0.7315761999925599,0.517157700000098,True,near-080,44,13,9,8.125,2,down,1,1
277,1,True,1.9939909999957308,800.0,50.0,33.0,0,False,2,down,0.16666666666666666,37,0,0.62688419999904,0.62688419999904,1.1620055999956094,True,near-000,44,6,5,3.75,3,down,1,0
278,1,True,1.5931909999926575,800.0,50.0,33.0,10,False,2,up,0.16666666666666666,19,0.1735859000182245,0.3506876000028569,0.5242735000210814,1.0070556999999098,False,near-160,44,13,7,8.125,2,up,1,1
279,2,True,0.9930773999949452,800.0,50.0,33.0,15,False,2,up,0.16666666666666666,16,0.2585201000038069,0.3202820000005886,0.5788021000043955,0.6434126999811269,False,near-240,44,24,13,15.0,2,up,2,2
280,4,True,1.0040773999935482,800.0,50.0,33.0,10,False,2,up,0.16666666666666666,19,0.1865090999926906,0.3819229000073392,0.5684320000000298,0.6726475000032224,False,near-160,45,14,7,8.75,2,up,1,1
281,2,True,1.090181700012181,800.0,50.0,33.0,0,False,2,down,0.16666666666666666,37,0,0.642334000003757,0.642334000003757,0.7058999000000767,False,near-000,45,7,5,4.375,3,down,1,0
282,1,True,1.894266500021331,800.0,50.0,33.0,5,False,2,down,0.16666666666666666,35,0.09253090000129305,0.6110945999971591,0.7036254999984521,0.6826296000217553,True,near-080,45,14,10,8.75,2,down,1,1
283,2,True,0.8689586000109557,800.0,800.0,50.0,0,False,0,up,0.16666666666666666,1,0,0.06205130001762882,0.06205130001762882,0.7578572999918833,True,near-rndm,45,6,6,3.75,3,up,1,0
284,1,True,1.1884244999964722,800.0,50.0,33.0,5,False,2,down,0.16666666666666666,35,0.09303859999636188,0.6059593000099994,0.6989979000063613,0.9759325000050012,True,near-080,46,15,11,9.375,2,down,1,1
285,2,True,1.0772203999804333,800.0,800.0,50.0,0,False,0,up,0.16666666666666666,1,0,0.055080999998608604,0.055080999998608604,0.6582987000001594,True,near-rndm,46,7,7,4.375,3,up,1,0
286,2,True,1.1306382000038866,800.0,50.0,33.0,0,False,2,down,0.16666666666666666,37,0,0.6363664000236895,0.6363664000236895,0.789934300002642,False,near-000,46,8,5,5.0,3,down,1,0
287,2,True,1.4059998000157066,800.0,50.0,33.0,10,False,2,up,0.16666666666666666,19,0.18099970000912435,0.357541500008665,0.5385412000177894,0.8317416000063531,False,near-160,46,15,7,9.375,2,up,1,1
288,1,True,1.645588699990185,800.0,50.0,33.0,10,False,2,up,0.16666666666666666,20,0.16701559998909943,0.3619749000063166,0.528990499995416,0.9946804000064731,False,near-160,47,1,0,0.625,2,up,1,0
289,1,True,1.2196231999841984,800.0,50.0,33.0,5,False,2,down,0.16666666666666666,35,0.09298780001699924,0.6020208999980241,0.6950087000150234,0.45553509998717345,True,near-080,47,16,12,10.0,2,down,1,1
290,3,True,1.0501864000107162,800.0,800.0,50.0,0,False,0,up,0.16666666666666666,1,0,0.05957730000955053,0.05957730000955053,0.9800488999753725,False,near-rndm,47,8,7,5.0,3,up,1,0
291,2,True,0.7606918000092264,800.0,100.0,50.0,0,False,1,up,0.16666666666666666,19,0,0.34867360000498593,0.34867360000498593,1.1672999000002164,False,near-rnd2,34,9,5,5.625,3,up,16,1
292,1,True,2.8869577000150457,800.0,50.0,33.0,10,False,2,up,0.16666666666666666,20,0.1715361000096891,0.3545076999871526,0.5260437999968417,0.89175310000428,False,near-160,48,2,0,1.25,2,up,1,0
293,1,True,3.993322199996328,800.0,33.0,50.0,0,False,3,down,0.16666666666666666,65,0,1.0625735000066925,1.0625735000066925,1.0346045999904163,False,near-rnd3,27,1,0,0.625,2,down,16,0
294,1,True,1.4072646999848075,800.0,800.0,50.0,0,False,0,up,0.16666666666666666,1,0,0.04575540000223555,0.04575540000223555,0.7127733000088483,True,near-rndm,48,9,8,5.625,3,up,16,1
295,3,True,1.430427300016163,800.0,100.0,50.0,0,False,1,up,0.16666666666666666,27,0,0.492325900006108,0.492325900006108,0.5714216000051238,True,near-rnd2,35,1,1,0.625,0.5,up,8,0
296,2,True,1.4321064999967348,800.0,33.0,50.0,0,False,3,down,0.16666666666666666,65,0,1.0670188999793027,1.0670188999793027,0.8138747999910265,False,near-rnd3,28,2,0,1.25,1.0,down,16,0
297,1,True,1.606625799991889,800.0,50.0,33.0,10,False,2,up,0.16666666666666666,20,0.17077460000291467,0.3643690000171773,0.535143600020092,0.8494142999988981,False,near-160,49,3,0,1.875,2,up,1,0
298,2,True,1.4148551000107545,800.0,800.0,50.0,0,False,0,down,0.16666666666666666,0,0,0.030476000014459714,0.030476000014459714,0.9133680999802891,True,near-rndm,49,1,1,0.625,0.5,down,4,0
299,3,True,2.4100488999974914,800.0,50.0,33.0,10,False,2,up,0.16666666666666666,20,0.183488499984378,0.37738260001060553,0.5608710999949835,0.7046337999927346,True,near-160,50,4,1,2.5,2,up,1,0
300,2,True,1.280766300013056,800.0,800.0,50.0,0,False,0,down,0.16666666666666666,0,0,0.03219410000019707,0.03219410000019707,0.9458059000025969,True,near-rndm,50,2,2,1.25,1,down,4,0
301,2,True,0.9098600999859627,800.0,33.0,50.0,0,False,3,up,0.16666666666666666,80,0,1.3094616999733262,1.3094616999733262,0.7046989999944344,True,near-rnd3,29,1,1,0.625,1.0,up,8,0
302,4,True,2.6354662000085227,800.0,100.0,50.0,0,False,1,up,0.16666666666666666,27,0,0.5083073000132572,0.5083073000132572,0.5309726999839768,True,near-rnd2,36,2,2,1.25,1,up,8,0
303,3,True,2.172762700007297,800.0,100.0,50.0,0,False,1,up,0.16666666666666666,27,0,0.49116980002145283,0.49116980002145283,0.4542488000006415,True,near-rnd2,37,3,3,1.875,1,up,8,0
304,2,True,0.9925970000040252,800.0,800.0,50.0,0,False,0,down,0.16666666666666666,0,0,0.032761899987235665,0.032761899987235665,0.7958196999970824,False,near-rndm,51,3,2,1.875,1,down,4,0
305,3,True,1.2892177000176162,800.0,50.0,33.0,10,False,2,up,0.16666666666666666,20,0.17788540001492947,0.380620900017675,0.5585063000326045,1.362605199974496,True,near-160,51,5,2,3.125,2,up,1,0
306,1,True,4.110941199993249,800.0,33.0,50.0,0,False,3,up,0.16666666666666666,80,0,1.2981024999753572,1.2981024999753572,0.604262100008782,True,near-rnd3,30,2,2,1.25,1,up,8,0
307,1,True,1.7392280000203755,800.0,800.0,50.0,0,False,0,down,0.16666666666666666,0,0,0.02374860001145862,0.02374860001145862,1.1599272000021301,True,near-rndm,52,4,3,2.5,1,down,4,0
308,2,True,1.1065095999801997,800.0,50.0,33.0,10,False,2,up,0.16666666666666666,20,0.17514110001502559,0.3793959000031464,0.554537000018172,0.8975800000189338,True,near-160,52,6,3,3.75,2,up,1,0
309,3,True,1.6276699000154622,800.0,33.0,50.0,0,False,3,up,0.16666666666666666,80,0,1.3152469000197016,1.3152469000197016,0.5851796000206377,True,near-rnd3,31,3,3,1.875,1,up,8,0
310,1,True,1.4671222000033595,800.0,100.0,50.0,0,False,1,down,0.16666666666666666,19,0,0.35004160000244156,0.35004160000244156,0.8106639999896288,False,near-rnd2,38,1,0,0.625,1,down,4,0
311,2,True,0.8129113000177313,800.0,100.0,50.0,0,False,1,down,0.16666666666666666,19,0,0.3485414999886416,0.3485414999886416,1.3361256999778561,True,near-rnd2,39,2,1,1.25,1,down,4,0
312,2,True,1.2996802999987267,800.0,50.0,33.0,10,False,2,up,0.16666666666666666,20,0.1740323999838438,0.36699559999397025,0.541027999977814,0.6398571000027005,False,near-160,53,7,3,4.375,2,up,1,0
313,1,True,1.141170000017155,800.0,33.0,50.0,0,False,3,down,0.16666666666666666,72,0,1.1736805000109598,1.1736805000109598,1.6726896000036504,False,near-rnd3,32,1,0,0.625,1,down,4,0
314,3,True,1.068603699997766,800.0,800.0,50.0,0,False,0,down,0.16666666666666666,0,0,0.04055870001320727,0.04055870001320727,0.9114497999835294,False,near-rndm,53,5,3,3.125,1,down,4,0
315,1,True,1.4823070999991614,800.0,50.0,33.0,10,False,2,up,0.16666666666666666,20,0.16548910000710748,0.3613967999990564,0.5268859000061639,0.8048879000125453,False,near-160,54,8,3,5.0,2,up,1,0
316,1,True,0.9954285999992862,800.0,800.0,50.0,0,False,0,down,0.16666666666666666,0,0,0.024033399997279048,0.024033399997279048,0.8444716999947559,True,near-rndm,54,6,4,3.75,1,down,4,0
317,2,True,0.879425999999512,800.0,100.0,50.0,0,False,1,down,0.16666666666666666,19,0,0.35687300001154654,0.35687300001154654,0.58304309999221,True,near-rnd2,40,3,2,1.875,1,down,4,0
318,1,True,1.3431513999821618,800.0,33.0,50.0,0,False,3,down,0.16666666666666666,72,0,1.1731334000069182,1.1731334000069182,0.6547641000070143,True,near-rnd3,33,2,1,1.25,1,down,4,0
319,2,True,0.8024601000070106,800.0,50.0,33.0,10,False,2,up,0.16666666666666666,20,0.1730457999801729,0.3805199999769684,0.5535657999571413,0.9254579000116792,False,near-160,55,9,3,5.625,2,up,1,1
320,4,True,1.070058200013591,800.0,33.0,50.0,0,False,3,down,0.16666666666666666,72,0,1.1968686000036541,1.1968686000036541,0.5758377000165638,True,near-rnd3,34,3,2,1.875,1,down,4,0
321,1,True,1.3046572000021115,800.0,800.0,50.0,0,False,0,down,0.16666666666666666,0,0,0.025292000005720183,0.025292000005720183,1.2264781999983825,False,near-rndm,55,7,4,4.375,1,down,4,0
322,2,True,0.9021743999910541,800.0,100.0,50.0,0,False,1,down,0.16666666666666666,19,0,0.3583515000063926,0.3583515000063926,0.705868199991528,True,near-rnd2,41,4,3,2.5,1,down,4,0
323,1,True,1.362021500011906,800.0,800.0,50.0,0,False,0,down,0.16666666666666666,0,0,0.024211999989347532,0.024211999989347532,0.9687356000067666,False,near-rndm,56,8,4,5.0,1,down,4,0
324,3,True,1.080393499985803,800.0,50.0,33.0,10,False,2,up,0.16666666666666666,21,0.1759940000192728,0.40154530000290833,0.5775393000221811,1.1242084999976214,True,near-160,56,1,1,0.625,2,up,1,0
325,2,True,5.809402799990494,800.0,33.0,50.0,0,False,3,down,0.16666666666666666,72,0,1.186117400007788,1.186117400007788,1.3465984000067692,True,near-rnd3,35,4,3,2.5,1,down,4,0
326,3,True,1.109428099996876,800.0,100.0,50.0,0,False,1,down,0.16666666666666666,19,0,0.37127880001207814,0.37127880001207814,0.7691064999962691,True,near-rnd2,42,5,4,3.125,1,down,4,0
327,2,True,1.5763749999750871,800.0,33.0,50.0,0,False,3,down,0.16666666666666666,72,0,1.1815260000003036,1.1815260000003036,0.6379471000109334,True,near-rnd3,36,5,4,3.125,1,down,4,0
328,4,True,1.1225648999970872,800.0,50.0,33.0,10,False,2,up,0.16666666666666666,21,0.18951860000379384,0.40877979999640957,0.5982984000002034,0.49744259999715723,True,near-160,57,2,2,1.25,2,up,1,0
329,1,True,1.5330759000207763,800.0,100.0,50.0,0,False,1,down,0.16666666666666666,19,0,0.33765349999885075,0.33765349999885075,0.7387864000047557,False,near-rnd2,43,6,4,3.75,1,down,4,0
330,2,True,1.0355961000022944,800.0,800.0,50.0,0,False,0,down,0.16666666666666666,0,0,0.03310770000098273,0.03310770000098273,0.917355099983979,False,near-rndm,57,9,4,5.625,1,down,4,1
331,2,True,1.242222100001527,800.0,33.0,50.0,0,False,3,down,0.16666666666666666,72,0,1.1783537000010256,1.1783537000010256,0.4258541999734007,True,near-rnd3,37,6,5,3.75,1,down,4,0
332,1,True,1.5510308000084478,800.0,50.0,33.0,10,False,2,up,0.16666666666666666,21,0.17293660002178513,0.3842206999834161,0.5571573000052013,0.8991572000086308,False,near-160,58,3,2,1.875,2,up,1,0
333,1,True,1.564036900002975,800.0,800.0,50.0,0,False,0,up,0.16666666666666666,2,0,0.059022000001277775,0.059022000001277775,1.1132014000031631,True,near-rndm,58,1,1,0.625,1,up,1,0
334,2,True,1.2516314999957103,800.0,100.0,50.0,0,False,1,down,0.16666666666666666,19,0,0.3614659000013489,0.3614659000013489,0.7731179999827873,False,near-rnd2,44,7,4,4.375,1,down,4,0
335,4,True,1.0926201000111178,800.0,50.0,33.0,10,False,2,up,0.16666666666666666,21,0.18654629998491146,0.41290840000147,0.5994546999863815,0.8604999000090174,True,near-160,59,4,3,2.5,2,up,1,0
336,4,True,1.257943200005684,800.0,100.0,50.0,0,False,1,down,0.16666666666666666,19,0,0.38127630000235513,0.38127630000235513,0.46888560001389123,False,near-rnd2,45,8,4,5.0,1,down,4,0
337,2,True,1.310844999999972,800.0,800.0,50.0,0,False,0,up,0.16666666666666666,2,0,0.06664619999355637,0.06664619999355637,0.8385335000057239,False,near-rndm,59,2,1,1.25,2,up,1,0
338,2,True,1.8619475000014063,800.0,33.0,50.0,0,False,3,down,0.16666666666666666,68,0,1.1192928999953438,1.1192928999953438,0.9507744000002276,True,near-rnd3,38,1,1,0.625,1,down,4,0
339,2,True,1.234087599994382,800.0,50.0,33.0,10,False,2,up,0.16666666666666666,21,0.17706570000154898,0.3861410999961663,0.5632067999977153,0.6395886999962386,False,near-160,60,5,3,3.125,2,up,1,0
340,4,True,1.1495837999973446,800.0,33.0,50.0,0,False,3,down,0.16666666666666666,68,0,1.1390822000103071,1.1390822000103071,0.7243338999978732,True,near-rnd3,39,2,2,1.25,1,down,4,0
341,2,True,1.7004388000059407,800.0,100.0,50.0,0,False,1,down,0.16666666666666666,19,0,0.35292580001987517,0.35292580001987517,0.7144641000195406,False,near-rnd2,46,9,4,5.625,1,down,4,1
342,2,True,1.6378816000069492,800.0,800.0,50.0,0,False,0,up,0.16666666666666666,2,0,0.06750000000465661,0.06750000000465661,0.6684575999970548,True,near-rndm,60,3,2,1.875,2,up,1,0
343,1,True,1.3193399999872781,800.0,50.0,33.0,10,False,2,up,0.16666666666666666,21,0.16813629999523982,0.374924200004898,0.5430605000001378,0.7963706000009552,False,near-160,61,6,3,3.75,2,up,1,0
344,1,True,1.422690200008219,800.0,100.0,50.0,0,False,1,up,0.16666666666666666,21,0,0.38027449999935925,0.38027449999935925,0.5496832999924663,True,near-rnd2,47,1,1,0.625,1,up,1,0
345,2,True,1.1345235999906436,800.0,33.0,50.0,0,False,3,down,0.16666666666666666,68,0,1.120454299991252,1.120454299991252,0.6409659000055399,True,near-rnd3,40,3,3,1.875,1,down,4,0
346,3,True,0.8840149000170641,800.0,800.0,50.0,0,False,0,up,0.16666666666666666,2,0,0.08388769999146461,0.08388769999146461,0.6046341999899596,True,near-rndm,61,4,3,2.5,2,up,1,0
347,1,True,0.9274265000130981,800.0,50.0,33.0,10,False,2,up,0.16666666666666666,21,0.17280339999706484,0.37918289998196997,0.5519862999790348,1.0055862000153866,False,near-160,62,7,3,4.375,2,up,1,0
348,4,True,1.111227500019595,800.0,800.0,50.0,0,False,0,up,0.16666666666666666,2,0,0.08887049998156726,0.08887049998156726,0.6179742999956943,True,near-rndm,62,5,4,3.125,2,up,1,0
349,1,True,1.1945305000117514,800.0,100.0,50.0,0,False,1,up,0.16666666666666666,21,0,0.3729503999929875,0.3729503999929875,0.7835222000139765,False,near-rnd2,48,2,1,1.25,2,up,1,0
350,3,True,0.9129431000037584,800.0,33.0,50.0,0,False,3,down,0.16666666666666666,64,0,1.0632384000055026,1.0632384000055026,0.8098372000094969,False,near-rnd3,41,1,0,0.625,1,down,4,0
351,3,True,2.735720600001514,800.0,100.0,50.0,0,False,1,up,0.16666666666666666,21,0,0.40554680000059307,0.40554680000059307,0.5095505000208504,True,near-rnd2,49,3,2,1.875,2,up,1,0
352,2,True,0.9399474999809172,800.0,800.0,50.0,0,False,0,up,0.16666666666666666,2,0,0.07227209999109618,0.07227209999109618,0.6654856000095606,True,near-rndm,63,6,5,3.75,2,up,1,0
353,4,True,1.2152620000124443,800.0,50.0,33.0,10,False,2,up,0.16666666666666666,21,0.1793881999910809,0.42146370001137257,0.6008519000024535,0.760164099978283,False,near-160,63,8,3,5.0,2,up,1,0
354,1,True,1.684436800016556,800.0,33.0,50.0,0,False,3,down,0.16666666666666666,64,0,1.0471919999981765,1.0471919999981765,0.5804332999978215,True,near-rnd3,42,2,1,1.25,1,down,4,0
355,1,True,1.7453697000164539,800.0,800.0,50.0,0,False,0,up,0.16666666666666666,2,0,0.0591145999787841,0.0591145999787841,0.9322103000013158,True,near-rndm,64,7,6,4.375,2,up,1,0
356,1,True,0.8785978000087198,800.0,50.0,33.0,10,False,2,up,0.16666666666666666,21,0.16661320001003332,0.3775274000072386,0.5441406000172719,0.8728359999950044,False,near-160,64,9,3,5.625,2,up,1,1
357,1,True,2.2576172999979462,800.0,100.0,50.0,0,False,1,up,0.16666666666666666,21,0,0.3763592999894172,0.3763592999894172,0.9136224999965634,True,near-rnd2,50,4,3,2.5,2,up,1,0
358,3,True,1.0762424000131432,800.0,33.0,50.0,0,False,3,down,0.16666666666666666,64,0,1.0606592999829445,1.0606592999829445,0.6441026999964379,True,near-rnd3,43,3,2,1.875,1,down,4,0
359,3,True,1.3335477999935392,800.0,50.0,33.0,10,False,2,up,0.16666666666666666,22,0.17878220000420697,0.4031904999865219,0.5819726999907289,0.5320109000022057,False,near-160,65,1,0,0.625,2,up,1,0
360,2,True,1.1611863000143785,800.0,800.0,50.0,0,False,0,up,0.16666666666666666,2,0,0.06338509998749942,0.06338509998749942,0.6042110999987926,True,near-rndm,65,8,7,5.0,2,up,1,0
361,2,True,0.9666236999910325,800.0,100.0,50.0,0,False,1,up,0.16666666666666666,21,0,0.38804950000485405,0.38804950000485405,0.5054146999900695,True,near-rnd2,51,5,4,3.125,2,up,1,0
362,1,True,1.0901207000133581,800.0,33.0,50.0,0,False,3,down,0.16666666666666666,64,0,1.0475109000108205,1.0475109000108205,1.2637945000024047,False,near-rnd3,44,4,2,2.5,1,down,4,0
363,2,True,0.9223331999965012,800.0,800.0,50.0,0,False,0,up,0.16666666666666666,2,0,0.06537180001032539,0.06537180001032539,0.734236599993892,True,near-rndm,66,9,8,5.625,2,up,1,1
364,2,True,0.9262731999915559,800.0,100.0,50.0,0,False,1,up,0.16666666666666666,21,0,0.37851310000405647,0.37851310000405647,0.8411882999935187,False,near-rnd2,52,6,4,3.75,2,up,1,0
365,3,True,1.3907376000133809,800.0,33.0,50.0,0,False,3,down,0.16666666666666666,64,0,1.0733275999955367,1.0733275999955367,0.5108518000051845,True,near-rnd3,45,5,3,3.125,1,down,4,0
366,1,True,1.525754300004337,800.0,50.0,33.0,10,False,2,up,0.16666666666666666,22,0.16955679998500273,0.5143008999875747,0.6838576999725774,0.5562585000006948,False,near-160,66,2,0,1.25,2,up,1,0
367,1,True,1.2675904000061564,800.0,50.0,33.0,10,False,2,up,0.16666666666666666,22,0.17175780000980012,0.3944504999963101,0.5662083000061102,1.1962581999832764,False,near-160,67,3,0,1.875,2,up,1,0
368,2,True,1.2249515999865253,800.0,100.0,50.0,0,False,1,up,0.16666666666666666,21,0,0.3871159999980591,0.3871159999980591,1.179179099999601,False,near-rnd2,53,7,4,4.375,2,up,1,0
369,4,True,0.8220602999790572,800.0,33.0,50.0,0,False,3,down,0.16666666666666666,64,0,1.0719323999946937,1.0719323999946937,0.4487125999876298,True,near-rnd3,46,6,4,3.75,1,down,4,0
370,3,True,0.9398794999870006,800.0,100.0,50.0,0,False,1,up,0.16666666666666666,21,0,0.4087641999940388,0.4087641999940388,0.7047046999796294,False,near-rnd2,54,8,4,5.0,2,up,1,0
371,2,True,1.4395240000158083,800.0,33.0,50.0,0,False,3,down,0.16666666666666666,64,0,1.0535073000064585,1.0535073000064585,0.601290999999037,True,near-rnd3,47,7,5,4.375,1,down,4,0
372,1,True,2.1925236000097357,800.0,50.0,33.0,10,False,2,up,0.16666666666666666,22,0.17321320000337437,0.3883244000026025,0.5615376000059769,0.6820795999956317,True,near-160,68,4,1,2.5,2,up,1,0
373,2,True,1.3114393000141717,800.0,33.0,50.0,0,False,3,down,0.16666666666666666,64,0,1.0546695000084583,1.0546695000084583,0.6455489000072703,True,near-rnd3,48,8,6,5.0,1,down,4,0
374,4,True,1.2107887000020128,800.0,100.0,50.0,0,False,1,up,0.16666666666666666,21,0,0.41167239999049343,0.41167239999049343,0.6345419999852311,False,near-rnd2,55,9,4,5.625,2,up,1,1
375,1,True,1.219612099986989,800.0,50.0,33.0,10,False,2,up,0.16666666666666666,22,0.1735814000130631,0.3942129000206478,0.5677943000337109,0.5453009000048041,False,near-160,69,5,1,3.125,2,up,1,0
376,1,True,2.004641100007575,800.0,50.0,33.0,10,False,2,up,0.16666666666666666,23,0.16624429999501444,0.41844020001008175,0.5846845000050962,0.8865143000148237,True,near-160,70,1,1,0.625,2,up,2,0
377,2,True,0.9942547999962699,800.0,100.0,50.0,0,False,1,up,0.16666666666666666,21,0,0.39530659999581985,0.39530659999581985,0.6395949999860022,True,near-rnd2,56,10,5,6.25,2,up,1,1
378,1,True,1.3722531000094023,800.0,33.0,50.0,0,False,3,down,0.16666666666666666,64,0,1.048462999984622,1.048462999984622,1.123688299994683,False,near-rnd3,49,9,6,5.625,1,down,4,1
379,4,True,1.3696581000112928,800.0,50.0,33.0,10,False,2,up,0.16666666666666666,23,0.1830463999940548,0.4403821000014432,0.623428499995498,0.5424351999827195,True,near-160,71,2,2,1.25,2,up,2,0
380,2,True,1.2755038999894168,800.0,33.0,50.0,0,False,3,down,0.16666666666666666,64,0,1.0568276999983937,1.0568276999983937,0.6979130999825429,True,near-rnd3,50,10,7,6.25,1,down,4,1
381,1,True,1.5046626000257675,800.0,100.0,50.0,0,False,1,up,0.16666666666666666,21,0,0.3751836000010371,0.3751836000010371,2.4720342000073288,False,near-rnd2,57,11,5,6.875,2,up,1,1
382,2,True,0.8919604999828152,800.0,100.0,50.0,0,False,1,up,0.16666666666666666,21,0,0.38151310000102967,0.38151310000102967,0.6289679000037722,True,near-rnd2,58,12,6,7.5,2,up,1,1
383,1,True,1.1090278000046965,800.0,33.0,50.0,0,False,3,down,0.16666666666666666,64,0,1.08114939997904,1.08114939997904,0.775584599992726,True,near-rnd3,51,11,8,6.875,1,down,4,1
384,1,True,1.3257137000036892,800.0,50.0,33.0,10,False,2,up,0.16666666666666666,23,0.1740097000147216,0.40856179999536835,0.58257150001009,1.3909050999791361,False,near-160,72,3,2,1.875,2,up,2,0
385,1,True,0.980192499991972,800.0,100.0,50.0,0,False,1,up,0.16666666666666666,21,0,0.3719083000032697,0.3719083000032697,1.1982612000138033,True,near-rnd2,59,13,7,8.125,2,up,1,1
386,3,True,0.924958500021603,800.0,50.0,33.0,10,False,2,up,0.16666666666666666,23,0.17403470000135712,0.4254417999763973,0.5994764999777544,0.5748329000198282,True,near-160,73,4,3,2.5,2,up,2,0
387,3,True,0.9599430999951437,800.0,33.0,50.0,0,False,3,down,0.16666666666666666,62,0,1.03426670000772,1.03426670000772,0.9494384000136051,True,near-rnd3,52,1,1,0.625,1,down,4,0
388,1,True,1.5227781000139657,800.0,50.0,33.0,10,False,2,up,0.16666666666666666,23,0.1729590999893844,0.41986239998368546,0.5928214999730699,2.022567500011064,True,near-160,74,5,4,3.125,2,up,2,0
389,2,True,0.933039000025019,800.0,33.0,50.0,0,False,3,down,0.16666666666666666,62,0,1.0299802999943495,1.0299802999943495,0.6057246999989729,True,near-rnd3,53,2,2,1.25,1,down,4,0
390,1,True,1.4825473999953829,800.0,100.0,50.0,0,False,1,up,0.16666666666666666,21,0,0.37991720001446083,0.37991720001446083,0.6048207999847364,True,near-rnd2,60,14,8,8.75,2,up,1,1
391,1,True,1.112607899995055,800.0,100.0,50.0,0,False,1,up,0.16666666666666666,21,0,0.3748141000105534,0.3748141000105534,0.6179514999967068,True,near-rnd2,61,15,9,9.375,2,up,1,1
392,2,True,1.0472758999967482,800.0,33.0,50.0,0,False,3,down,0.16666666666666666,62,0,1.0224416000128258,1.0224416000128258,1.062703200004762,True,near-rnd3,54,3,3,1.875,1,down,4,0
393,3,True,1.470469799998682,800.0,50.0,33.0,10,False,2,up,0.16666666666666666,23,0.18784020000020973,0.42484459999832325,0.612684799998533,0.4695316999859642,True,near-160,75,6,5,3.75,2,up,2,0
394,1,True,1.6478965999849606,800.0,33.0,50.0,0,False,3,down,0.16666666666666666,58,0,0.9479583000065759,0.9479583000065759,1.156105200003367,False,near-rnd3,55,1,0,0.625,1,down,8,0
395,1,True,1.648515100008808,800.0,50.0,33.0,10,False,2,up,0.16666666666666666,23,0.2908578999922611,0.4107746999943629,0.701632599986624,0.6054963000060525,True,near-160,76,7,6,4.375,2,up,2,0
396,2,True,1.3910023999924306,800.0,100.0,50.0,0,False,1,up,0.16666666666666666,21,0,0.38511460000881925,0.38511460000881925,0.6729232000070624,False,near-rnd2,62,16,9,10.0,2,up,1,1
397,1,True,1.886869799986016,800.0,50.0,33.0,10,False,2,up,0.16666666666666666,23,0.17106180000700988,0.40782799999578856,0.5788898000027984,0.4546614999999292,False,near-160,77,8,6,5.0,2,up,2,0
398,1,True,1.0712609999754932,800.0,33.0,50.0,0,False,3,down,0.16666666666666666,58,0,0.9526255000091624,0.9526255000091624,1.1613970999896992,True,near-rnd3,56,2,1,1.25,1,down,8,0
399,1,True,3.936724300001515,800.0,33.0,50.0,0,False,3,down,0.16666666666666666,58,0,0.9519152999855578,0.9519152999855578,0.6465142999950331,True,near-rnd3,57,3,2,1.875,1,down,8,0
400,2,True,1.267272500001127,800.0,50.0,33.0,10,False,2,up,0.16666666666666666,23,0.17834419998689555,0.42662120002205484,0.6049654000089504,0.4395550000190269,True,near-160,78,9,7,5.625,2,up,2,1
401,2,True,0.9402771000168286,800.0,50.0,33.0,10,False,2,up,0.16666666666666666,23,0.17846860000281595,0.4114442999998573,0.5899129000026733,0.81828000000678,True,near-160,79,10,8,6.25,2,up,2,1
402,2,True,1.3217429000069387,800.0,33.0,50.0,0,False,3,down,0.16666666666666666,58,0,0.956788499985123,0.956788499985123,1.035593799984781,True,near-rnd3,58,4,3,2.5,1,down,8,0
403,2,True,0.8476169999921694,800.0,33.0,50.0,0,False,3,down,0.16666666666666666,58,0,0.95533179998165,0.95533179998165,0.5523974999960046,True,near-rnd3,59,5,4,3.125,1,down,8,0
404,3,True,1.1648393000068609,800.0,50.0,33.0,10,False,2,up,0.16666666666666666,23,0.18907340001896955,0.42177559999981895,0.6108490000187885,0.5679742000065744,True,near-160,80,11,9,6.875,2,up,2,1
405,3,True,0.721653199987486,800.0,33.0,50.0,0,False,3,down,0.16666666666666666,58,0,0.9644787999859545,0.9644787999859545,0.7963668000011239,True,near-rnd3,60,6,5,3.75,1,down,8,0
406,2,True,1.2050603000097908,800.0,50.0,33.0,10,False,2,down,0.16666666666666666,22,0.17359920000308193,0.40263129997765645,0.5762304999807384,0.4427889999933541,False,near-160,81,1,0,0.625,2,down,1,0
407,4,True,1.3437089000071865,800.0,50.0,33.0,10,False,2,down,0.16666666666666666,22,0.19323929998790845,0.42243420000886545,0.6156734999967739,0.9824422000092454,False,near-160,82,2,0,1.25,3,down,1,0
408,4,True,1.3426916000025813,800.0,33.0,50.0,0,False,3,down,0.16666666666666666,50,0,0.8419379999977536,0.8419379999977536,1.1198751000047196,True,near-rnd3,61,1,1,0.625,1,down,16,0
409,2,True,1.7214577000122517,800.0,50.0,33.0,10,False,2,down,0.16666666666666666,22,0.17478810000466183,0.40581259998725727,0.5806006999919191,0.590849200001685,False,near-160,83,3,0,1.875,3,down,1,0
410,1,True,1.5168258000048809,800.0,33.0,50.0,0,False,3,down,0.16666666666666666,50,0,0.8273174999922048,0.8273174999922048,1.2469082999741659,False,near-rnd3,62,2,1,1.25,1.0,down,16,0
411,1,True,1.2943435999914072,800.0,50.0,33.0,10,False,2,down,0.16666666666666666,22,0.1677833000139799,0.3911398000200279,0.5589231000340078,1.3836854999826755,False,near-160,84,4,0,2.5,3,down,1,0
412,2,True,0.9298102000029758,800.0,33.0,50.0,0,False,3,down,0.16666666666666666,50,0,0.8343605999834836,0.8343605999834836,0.6018708999908995,False,near-rnd3,63,3,1,1.875,1.0,down,16,0
413,2,True,1.4354335000098217,800.0,33.0,50.0,0,False,3,up,0.16666666666666666,66,0,1.0895975999883376,1.0895975999883376,0.8404886999924202,False,near-rnd3,64,1,0,0.625,0.5,up,8,0
414,2,True,1.8146973999973852,800.0,50.0,33.0,10,False,2,down,0.16666666666666666,22,0.17274760000873357,0.4101846000121441,0.5829322000208776,0.9858889000024647,True,near-160,85,5,1,3.125,3,down,1,0
415,2,True,0.9931439000065438,800.0,33.0,50.0,0,False,3,up,0.16666666666666666,66,0,1.0910169999988284,1.0910169999988284,0.5405603999970481,False,near-rnd3,65,2,0,1.25,1,up,8,0
416,2,True,1.1030971999862231,800.0,50.0,33.0,10,False,2,down,0.16666666666666666,22,0.17576050001662225,0.4061474000045564,0.5819079000211786,0.7899879000033252,False,near-160,86,6,1,3.75,3,down,1,0
417,1,True,6.654119499988155,800.0,33.0,50.0,0,False,3,up,0.16666666666666666,74,0,1.2073935999942478,1.2073935999942478,0.43971740000415593,True,near-rnd3,66,1,1,0.625,1,up,8,0
418,1,True,1.3747473999974318,800.0,50.0,33.0,10,False,2,down,0.16666666666666666,22,0.1732338999863714,0.3896531999926083,0.5628870999789797,0.507339800009504,True,near-160,87,7,2,4.375,3,down,1,0
419,3,True,1.0401465999893844,800.0,33.0,50.0,0,False,3,up,0.16666666666666666,74,0,1.216614299977664,1.216614299977664,0.1681109000055585,False,near-rnd3,67,2,1,1.25,1,up,8,0
420,3,True,1.079672899999423,800.0,50.0,33.0,10,False,2,down,0.16666666666666666,22,0.17521089999354444,0.4285344000090845,0.6037453000026289,0.5697236999985762,True,near-160,88,8,3,5.0,3,down,1,0
