trial,primeIter,primeCorrect,primeTime,primeDepth,stimDepth,extraDepth,driveFrames,nearToFar,diopters,direction,size,intensity,extraLatency,mainLatency,totalLatency,responseTime,correct,caseLabel,caseTrial,trialsAtStep,stepCorrect,expected,w,direction,stepsize,stepChange
1,4,True,1.4854272999800742,800.0,100.0,50.0,0,False,1,start,0.16666666666666666,60,0,1.0384685000171885,1.0384685000171885,0.3300158999627456,True,near-rnd2,1,1,1,0.625,0.5,start,16,0
2,4,True,1.8841795999906026,800.0,50.0,33.0,15,False,2,start,0.16666666666666666,60,0.27784799999790266,1.0340171999996528,1.3118651999975555,0.5926860999898054,True,near-240,1,1,1,0.625,0.5,start,16,0
3,2,True,1.1698823000187986,800.0,50.0,33.0,0,False,2,start,0.16666666666666666,60,0,1.0198578999843448,1.0198578999843448,0.8393604999873787,True,near-000,1,1,1,0.625,0.5,start,16,0
4,2,True,3.0788047999958508,800.0,33.0,50.0,0,False,3,start,0.16666666666666666,60,0,0.9869916999596171,0.9869916999596171,0.4117271999712102,True,near-rnd3,1,1,1,0.625,0.5,start,16,0
5,2,True,2.3240369000122882,800.0,800.0,50.0,0,False,0,start,0.16666666666666666,60,0,1.0106696999864653,1.0106696999864653,1.5975680999690667,True,near-rndm,1,1,1,0.625,0.5,start,16,0
6,3,True,6.123018199985381,800.0,50.0,33.0,5,False,2,start,0.16666666666666666,60,0.1125222000409849,1.021582400018815,1.1341046000597998,0.16211599996313453,True,near-080,1,1,1,0.625,0.5,start,16,0
7,1,True,1.6337471999577247,800.0,50.0,33.0,10,False,2,start,0.16666666666666666,60,0.19328759994823486,0.9990650999825448,1.1923526999307796,1.633004900009837,True,near-160,1,1,1,0.625,0.5,start,16,0
8,1,True,2.135524899989832,800.0,50.0,33.0,10,False,2,start,0.16666666666666666,44,0.2127007000381127,0.752944000007119,0.9656447000452317,0.14208800002234057,True,near-160,2,1,1,0.625,1.0,start,16,0
9,2,True,5.259937299997546,800.0,800.0,50.0,0,False,0,start,0.16666666666666666,44,0,0.7472477999981493,0.7472477999981493,0.8159728000173345,True,near-rndm,2,1,1,0.625,1.0,start,16,0
10,2,True,4.967994700011332,800.0,100.0,50.0,0,False,1,start,0.16666666666666666,44,0,0.7519298999686725,0.7519298999686725,0.34496920002857223,True,near-rnd2,2,1,1,0.625,1.0,start,16,0
11,1,True,4.341557399951853,800.0,50.0,33.0,5,False,2,start,0.16666666666666666,44,0.09097909997217357,0.7388607999891974,0.829839899961371,0.36607599997660145,True,near-080,2,1,1,0.625,1.0,start,16,0
12,2,True,1.1718725999817252,800.0,50.0,33.0,0,False,2,start,0.16666666666666666,44,0,0.749907199991867,0.749907199991867,0.2610616000019945,True,near-000,2,1,1,0.625,1.0,start,16,0
13,4,True,1.7364652000251226,800.0,33.0,50.0,0,False,3,start,0.16666666666666666,44,0,0.7559964000247419,0.7559964000247419,1.0234793999698013,False,near-rnd3,2,1,0,0.625,1.0,start,16,0
14,2,True,2.140786800009664,800.0,50.0,33.0,15,False,2,start,0.16666666666666666,44,0.26084120001178235,0.7544904000242241,1.0153316000360064,0.16706369997700676,True,near-240,2,1,1,0.625,1.0,start,16,0
15,4,True,2.338819299999159,800.0,50.0,33.0,0,False,2,start,0.16666666666666666,28,0,0.5588224999955855,0.5588224999955855,0.7734137999941595,False,near-000,3,1,0,0.625,1.0,start,16,0
16,4,True,2.1246520999702625,800.0,50.0,33.0,15,False,2,start,0.16666666666666666,28,0.275168499967549,0.5075742999906652,0.7827427999582142,2.1731538000167347,True,near-240,3,1,1,0.625,1.0,start,16,0
17,3,True,2.8461817000061274,800.0,100.0,50.0,0,False,1,start,0.16666666666666666,28,0,0.5217051999643445,0.5217051999643445,0.6192567000398412,True,near-rnd2,3,1,1,0.625,1.0,start,16,0
18,4,True,2.437326099956408,800.0,800.0,50.0,0,False,0,start,0.16666666666666666,28,0,0.5089845000184141,0.5089845000184141,0.5486697999876924,True,near-rndm,3,1,1,0.625,1.0,start,16,0
19,1,True,4.78833939996548,800.0,50.0,33.0,10,False,2,start,0.16666666666666666,28,0.17001060000620782,0.4937806000234559,0.6637912000296637,0.5058248999994248,True,near-160,3,1,1,0.625,1.0,start,16,0
20,2,True,2.3224687000038102,800.0,33.0,50.0,0,False,3,start,0.16666666666666666,44,0,0.7328678999911062,0.7328678999911062,1.1785565000027418,False,near-rnd3,3,2,0,1.25,1.0,start,16,0
21,4,True,1.6307382000377402,800.0,50.0,33.0,5,False,2,start,0.16666666666666666,28,0.12036399997305125,0.505109200021252,0.6254731999943033,0.44477089995052665,False,near-080,3,1,0,0.625,1.0,start,16,0
22,1,True,5.0393346000346355,800.0,50.0,33.0,10,False,2,start,0.16666666666666666,12,0.1660468999762088,0.23228779999772087,0.3983346999739297,0.7684009000076912,True,near-160,4,1,1,0.625,0.5,start,16,0
23,2,True,2.0985412999871187,800.0,800.0,50.0,0,False,0,start,0.16666666666666666,12,0,0.22415279998676851,0.22415279998676851,3.17956449999474,False,near-rndm,4,1,0,0.625,0.5,start,16,0
24,3,True,1.3084832000313327,800.0,33.0,50.0,0,False,3,up,0.16666666666666666,52,0,0.8744023999897763,0.8744023999897763,0.21597170003224164,True,near-rnd3,4,1,1,0.625,0.5,up,8,0
25,1,True,2.6080809999839403,800.0,50.0,33.0,15,False,2,start,0.16666666666666666,12,0.24997130001429468,0.34297779999906197,0.5929491000133567,0.49617899995064363,True,near-240,4,1,1,0.625,0.5,start,16,0
26,4,True,1.7325160999898799,800.0,50.0,33.0,5,False,2,up,0.16666666666666666,36,0.11662589997285977,0.6550491999951191,0.7716750999679789,0.41713289998006076,True,near-080,4,1,1,0.625,0.5,up,8,0
27,3,True,4.780960600008257,800.0,50.0,33.0,0,False,2,up,0.16666666666666666,36,0,0.6561122999992222,0.6561122999992222,0.4825249999994412,True,near-000,4,1,1,0.625,0.5,up,8,0
28,2,True,1.8274097999674268,800.0,100.0,50.0,0,False,1,start,0.16666666666666666,12,0,0.24738700001034886,0.24738700001034886,1.1177077000029385,False,near-rnd2,4,1,0,0.625,0.5,start,16,0
29,2,True,1.7739202000084333,800.0,33.0,50.0,0,False,3,up,0.16666666666666666,52,0,0.8672993999789469,0.8672993999789469,1.315712400013581,True,near-rnd3,5,2,2,1.25,1,up,8,0
30,4,True,2.094365100027062,800.0,50.0,33.0,0,False,2,up,0.16666666666666666,36,0,0.6565812999615446,0.6565812999615446,0.346623899997212,True,near-000,5,2,2,1.25,1,up,8,0
31,1,True,2.9864167000050656,800.0,100.0,50.0,0,False,1,up,0.16666666666666666,20,0,0.36424349999288097,0.36424349999288097,0.5918534999946132,True,near-rnd2,5,1,1,0.625,0.5,up,8,0
32,1,True,5.174449100042693,800.0,50.0,33.0,5,False,2,up,0.16666666666666666,36,0.08910860004834831,0.615134300023783,0.7042429000721313,1.0753210000111721,False,near-080,5,2,1,1.25,1,up,8,0
33,2,True,2.107289600011427,800.0,800.0,50.0,0,False,0,up,0.16666666666666666,20,0,0.3645041999989189,0.3645041999989189,1.833970399980899,False,near-rndm,5,1,0,0.625,0.5,up,8,0
34,2,True,1.4677642000024207,800.0,50.0,33.0,15,False,2,start,0.16666666666666666,0,0.2579395000357181,0.04290830000536516,0.30084780004108325,0.7871593000018038,False,near-240,5,1,0,0.625,0.5,start,16,0
35,3,True,1.9434794000117108,800.0,50.0,33.0,10,False,2,start,0.16666666666666666,0,0.17597169999498874,0.055085500003769994,0.23105719999875873,1.2089683000231162,False,near-160,5,1,0,0.625,0.5,start,16,0
36,1,True,2.8219793000025675,800.0,50.0,33.0,15,False,2,up,0.16666666666666666,8,0.2489579999819398,0.16778810002142563,0.4167461000033654,2.4686945999856107,False,near-240,6,1,0,0.625,0.5,up,8,0
37,3,True,1.1258106000022963,800.0,100.0,50.0,0,False,1,up,0.16666666666666666,20,0,0.38638779998291284,0.38638779998291284,0.469293900008779,True,near-rnd2,6,2,2,1.25,1,up,8,0
38,5,True,2.7139635999919847,800.0,50.0,33.0,10,False,2,up,0.16666666666666666,8,0.1827472999575548,0.21139139996375889,0.3941386999213137,0.966802800016012,False,near-160,6,1,0,0.625,0.5,up,8,0
39,1,True,3.0599106999579817,800.0,50.0,33.0,0,False,2,up,0.16666666666666666,36,0,0.6151473999489099,0.6151473999489099,0.3700554000097327,True,near-000,6,3,3,1.875,1,up,8,0
40,1,True,1.446213399991393,800.0,50.0,33.0,5,False,2,up,0.16666666666666666,36,0.0911237999680452,0.6222844999865629,0.7134082999546081,0.8422827000031248,False,near-080,6,3,1,1.875,1,up,8,0
41,2,True,1.294629200012423,800.0,800.0,50.0,0,False,0,up,0.16666666666666666,20,0,0.36169429996516556,0.36169429996516556,0.6156855000299402,True,near-rndm,6,2,1,1.25,1,up,8,0
42,3,True,2.2454547000234015,800.0,33.0,50.0,0,False,3,up,0.16666666666666666,52,0,0.8708718999987468,0.8708718999987468,0.3839735999936238,False,near-rnd3,6,3,2,1.875,1,up,8,0
43,2,True,1.7346097999834456,800.0,33.0,50.0,0,False,3,up,0.16666666666666666,52,0,0.862055599980522,0.862055599980522,2.2097020999644883,True,near-rnd3,7,4,3,2.5,1,up,8,0
44,3,True,1.5879704999970272,800.0,50.0,33.0,10,False,2,up,0.16666666666666666,8,0.17700199998216704,0.19642679998651147,0.3734287999686785,2.9813115000142716,False,near-160,7,2,0,1.25,1,up,8,0
45,1,True,6.456696699955501,800.0,50.0,33.0,15,False,2,up,0.16666666666666666,8,0.24762580002425238,0.16434459999436513,0.4119704000186175,0.8708505000104196,False,near-240,7,2,0,1.25,1,up,8,0
46,2,True,3.47525499999756,800.0,50.0,33.0,5,False,2,up,0.16666666666666666,36,0.09879369998816401,0.6291440000059083,0.7279376999940723,0.48239170003216714,True,near-080,7,4,2,2.5,1,up,8,0
47,2,True,1.096161600027699,800.0,800.0,50.0,0,False,0,up,0.16666666666666666,20,0,0.3606749000027776,0.3606749000027776,0.7814351000124589,True,near-rndm,7,3,2,1.875,1,up,8,0
48,2,True,2.561337499995716,800.0,100.0,50.0,0,False,1,up,0.16666666666666666,20,0,0.37008279998553917,0.37008279998553917,0.655936399998609,True,near-rnd2,7,3,3,1.875,1,up,8,0
49,2,True,2.30217719997745,800.0,50.0,33.0,0,False,2,down,0.16666666666666666,32,0,0.5546853999840096,0.5546853999840096,2.4084001000155695,False,near-000,7,1,0,0.625,1,down,4,0
50,2,True,2.0962212999584153,800.0,50.0,33.0,10,False,2,up,0.16666666666666666,16,0.17276500002481043,0.30870059999870136,0.4814656000235118,0.8035500000114553,True,near-160,8,1,1,0.625,1,up,8,0
51,1,True,6.213557699986268,800.0,100.0,50.0,0,False,1,down,0.16666666666666666,16,0,0.29759769997326657,0.29759769997326657,0.6077940000104718,True,near-rnd2,8,1,1,0.625,1,down,4,0
52,2,True,1.534923000028357,800.0,33.0,50.0,0,False,3,up,0.16666666666666666,52,0,0.8621984999626875,0.8621984999626875,0.680607299960684,True,near-rnd3,8,5,4,3.125,1,up,8,0
53,1,True,3.7788388999761082,800.0,50.0,33.0,5,False,2,up,0.16666666666666666,36,0.08862580003915355,0.6135646000038832,0.7021904000430368,0.30327289999695495,True,near-080,8,5,3,3.125,1,up,8,0
54,1,True,1.8795271999551915,800.0,800.0,50.0,0,False,0,up,0.16666666666666666,20,0,0.34567300003254786,0.34567300003254786,0.5808576999697834,False,near-rndm,8,4,2,2.5,1,up,8,0
55,3,True,2.064149699988775,800.0,50.0,33.0,0,False,2,down,0.16666666666666666,32,0,0.5613700000103563,0.5613700000103563,0.33362639998085797,True,near-000,8,2,1,1.25,1,down,4,0
56,3,True,2.1577183000044897,800.0,50.0,33.0,15,False,2,up,0.16666666666666666,16,0.2612344999797642,0.31629180000163615,0.5775262999814004,1.066138399997726,False,near-240,8,1,0,0.625,1,up,8,0
57,1,True,1.8878289999556728,800.0,100.0,50.0,0,False,1,down,0.16666666666666666,16,0,0.2973842999781482,0.2973842999781482,0.6736343000084162,False,near-rnd2,9,2,1,1.25,1,down,4,0
58,4,True,2.2585353000322357,800.0,50.0,33.0,10,False,2,up,0.16666666666666666,16,0.1894857999868691,0.3331921999924816,0.5226779999793507,0.6543294999864884,False,near-160,9,2,1,1.25,1,up,8,0
59,3,True,1.4099486999912187,800.0,33.0,50.0,0,False,3,up,0.16666666666666666,52,0,0.8705570999882184,0.8705570999882184,0.5202675000182353,False,near-rnd3,9,6,4,3.75,1,up,8,0
60,6,True,3.4973937000031583,800.0,50.0,33.0,15,False,2,up,0.16666666666666666,16,0.27069430000847206,0.34491590003017336,0.6156102000386454,0.5682898999657482,True,near-240,9,2,1,1.25,1,up,8,0
61,4,True,4.595175600028597,800.0,50.0,33.0,0,False,2,down,0.16666666666666666,32,0,0.5786656000418589,0.5786656000418589,0.5424385999795049,True,near-000,9,3,2,1.875,1,down,4,0
62,2,True,1.2176418000017293,800.0,800.0,50.0,0,False,0,up,0.16666666666666666,20,0,0.3558799999882467,0.3558799999882467,0.43597190000582486,True,near-rndm,9,5,3,3.125,1,up,8,0
63,1,True,1.74349429999711,800.0,50.0,33.0,5,False,2,up,0.16666666666666666,36,0.09307020000414923,0.6320588000235148,0.725129000027664,0.25636739999754354,True,near-080,9,6,4,3.75,1,up,8,0
64,1,True,1.4317181999795139,800.0,100.0,50.0,0,False,1,down,0.16666666666666666,16,0,0.3153766000177711,0.3153766000177711,3.0492101999698207,True,near-rnd2,10,3,2,1.875,1,down,4,0
65,5,True,2.605122199980542,800.0,50.0,33.0,5,False,2,up,0.16666666666666666,36,0.11318039998877794,0.6426752000115812,0.7558556000003591,0.38990869995905086,False,near-080,10,7,4,4.375,1,up,8,0
66,2,True,2.0006025999900885,800.0,50.0,33.0,15,False,2,up,0.16666666666666666,16,0.258749499975238,0.31350649998057634,0.5722559999558143,0.629602300003171,True,near-240,10,3,2,1.875,1,up,8,0
67,4,True,2.022292700014077,800.0,50.0,33.0,0,False,2,down,0.16666666666666666,32,0,0.5870307000004686,0.5870307000004686,0.418218299979344,True,near-000,10,4,3,2.5,1,down,4,0
68,2,True,1.1049700999865308,800.0,33.0,50.0,0,False,3,up,0.16666666666666666,52,0,0.8695797999971546,0.8695797999971546,0.8120707999914885,False,near-rnd3,10,7,4,4.375,1,up,8,0
69,2,True,0.9841166000114754,800.0,800.0,50.0,0,False,0,up,0.16666666666666666,20,0,0.3597169000422582,0.3597169000422582,0.6023646999965422,True,near-rndm,10,6,4,3.75,1,up,8,0
70,3,True,1.3029665000503883,800.0,50.0,33.0,10,False,2,up,0.16666666666666666,16,0.1902438999968581,0.32293980004033074,0.5131837000371888,0.6815868999692611,False,near-160,10,3,1,1.875,1,up,8,0
71,4,True,4.020647299999837,800.0,33.0,50.0,0,False,3,up,0.16666666666666666,52,0,0.8774546000058763,0.8774546000058763,1.2393065000069328,False,near-rnd3,11,8,4,5.0,1,up,8,0
72,4,True,2.015414899971802,800.0,50.0,33.0,10,False,2,up,0.16666666666666666,16,0.19165330001851544,0.32696279999800026,0.5186161000165157,0.7244003999512643,False,near-160,11,4,1,2.5,1,up,8,0
73,4,True,1.6553880999563262,800.0,50.0,33.0,15,False,2,up,0.16666666666666666,16,0.2620584000251256,0.33415300003252923,0.5962114000576548,1.1721180999884382,False,near-240,11,4,2,2.5,1,up,8,0
74,4,True,2.3855732000083663,800.0,50.0,33.0,0,False,2,down,0.16666666666666666,32,0,0.5844137000385672,0.5844137000385672,0.5032098999945447,True,near-000,11,5,4,3.125,1,down,4,0
75,2,True,1.5621760000358336,800.0,50.0,33.0,5,False,2,up,0.16666666666666666,36,0.09529849997488782,0.6300776000134647,0.7253760999883525,0.29940080002415925,True,near-080,11,8,5,5.0,1,up,8,0
76,4,True,1.3696713999961503,800.0,800.0,50.0,0,False,0,up,0.16666666666666666,20,0,0.3865160000277683,0.3865160000277683,1.382599799952004,True,near-rndm,11,7,5,4.375,1,up,8,0
77,3,True,3.7313566000084393,800.0,100.0,50.0,0,False,1,down,0.16666666666666666,16,0,0.31834330002311617,0.31834330002311617,0.6817853999673389,True,near-rnd2,11,4,3,2.5,1,down,4,0
78,1,True,2.1406534999841824,800.0,50.0,33.0,15,False,2,up,0.16666666666666666,16,0.25095680000958964,0.3038245000061579,0.5547813000157475,0.7325465000467375,True,near-240,12,5,3,3.125,1,up,8,0
79,1,True,2.8231985000311397,800.0,100.0,50.0,0,False,1,down,0.16666666666666666,16,0,0.3037754999822937,0.3037754999822937,0.6411730999825522,True,near-rnd2,12,5,4,3.125,1,down,4,0
80,1,True,1.6269486999954097,800.0,33.0,50.0,0,False,3,up,0.16666666666666666,52,0,0.8538695999886841,0.8538695999886841,1.0606760999653488,False,near-rnd3,12,9,4,5.625,1,up,8,1
81,1,True,2.4064635000540875,800.0,800.0,50.0,0,False,0,up,0.16666666666666666,20,0,0.3561928999843076,0.3561928999843076,0.4840651000267826,True,near-rndm,12,8,6,5.0,1,up,8,0
82,1,True,1.1832701999810524,800.0,50.0,33.0,5,False,2,up,0.16666666666666666,36,0.08851850003702566,0.6206360000069253,0.709154500043951,1.141226599982474,False,near-080,12,9,5,5.625,1,up,8,1
83,1,True,2.7335311000351794,800.0,50.0,33.0,10,False,2,up,0.16666666666666666,24,0.16942610003752634,0.4297771999845281,0.5992033000220545,0.8136272000265308,False,near-160,12,1,0,0.625,1,up,8,0
84,1,True,1.2695349999703467,800.0,50.0,33.0,0,False,2,down,0.16666666666666666,32,0,0.5473478999920189,0.5473478999920189,0.2619350000168197,True,near-000,12,6,5,3.75,1,down,4,0
85,2,True,1.6269481999916025,800.0,50.0,33.0,15,False,2,up,0.16666666666666666,16,0.2628905000165105,0.31827570003224537,0.5811662000487559,2.4709125999943353,False,near-240,13,6,3,3.75,1,up,8,0
86,2,True,1.5311128000030294,800.0,50.0,33.0,10,False,2,up,0.16666666666666666,24,0.17955349996918812,0.4444226000341587,0.6239761000033468,0.3039138999884017,False,near-160,13,2,0,1.25,1,up,8,0
87,1,True,2.798127799993381,800.0,50.0,33.0,5,False,2,up,0.16666666666666666,36,0.09242310002446175,0.6163302999921143,0.708753400016576,0.6853493999806233,True,near-080,13,10,6,6.25,1,up,8,1
88,2,True,1.2909895000047982,800.0,33.0,50.0,0,False,3,up,0.16666666666666666,56,0,0.923520100011956,0.923520100011956,1.008587299962528,True,near-rnd3,13,1,1,0.625,1,up,4,0
89,2,True,1.3758299999753945,800.0,100.0,50.0,0,False,1,down,0.16666666666666666,16,0,0.30111389997182414,0.30111389997182414,0.6525815000059083,True,near-rnd2,13,6,5,3.75,1,down,4,0
90,1,True,1.8985676000011154,800.0,800.0,50.0,0,False,0,up,0.16666666666666666,20,0,0.35047689999919385,0.35047689999919385,0.6601106999441981,False,near-rndm,13,9,6,5.625,1,up,8,1
91,2,True,1.0675041999784298,800.0,50.0,33.0,0,False,2,down,0.16666666666666666,28,0,0.4952248999616131,0.4952248999616131,0.986601900018286,False,near-000,13,1,0,0.625,1,down,4,0
92,4,True,1.9881521000061184,800.0,50.0,33.0,5,False,2,up,0.16666666666666666,36,0.10116619995096698,0.6459388000075705,0.7471049999585375,0.24955150001915172,False,near-080,14,11,6,6.875,1,up,8,1
93,4,True,1.8400239000329748,800.0,50.0,33.0,0,False,2,down,0.16666666666666666,28,0,0.5087612000061199,0.5087612000061199,0.39671200001612306,True,near-000,14,2,1,1.25,1,down,4,0
94,3,True,1.7849812000058591,800.0,100.0,50.0,0,False,1,down,0.16666666666666666,12,0,0.2540491000399925,0.2540491000399925,0.6008427999913692,False,near-rnd2,14,1,0,0.625,1,down,4,0
95,3,True,1.3369405000121333,800.0,50.0,33.0,15,False,2,up,0.16666666666666666,16,0.2559587999712676,0.32313789997715503,0.5790966999484226,0.606517200008966,True,near-240,14,7,4,4.375,1,up,8,0
96,2,True,1.204848499968648,800.0,800.0,50.0,0,False,0,up,0.16666666666666666,20,0,0.3619800999877043,0.3619800999877043,0.5869607000495307,True,near-rndm,14,10,7,6.25,1,up,8,1
97,2,True,1.202306099992711,800.0,33.0,50.0,0,False,3,up,0.16666666666666666,56,0,0.9252672999864444,0.9252672999864444,0.0637978000449948,True,near-rnd3,14,2,2,1.25,1,up,4,0
98,4,True,0.9817498999764211,800.0,50.0,33.0,10,False,2,up,0.16666666666666666,40,0.19272130000172183,0.7160613000160083,0.9087826000177301,0.33083130000159144,True,near-160,14,1,1,0.625,1,up,16,0
99,4,True,1.8261266000336036,800.0,33.0,50.0,0,False,3,up,0.16666666666666666,56,0,0.94681519997539,0.94681519997539,0.9458517999737523,False,near-rnd3,15,3,2,1.875,1,up,4,0
100,5,True,1.292426500003785,800.0,50.0,33.0,15,False,2,up,0.16666666666666666,16,0.2844184000277892,0.33212279999861494,0.6165412000264041,0.49048710003262386,True,near-240,15,8,5,5.0,1,up,8,0
101,1,True,1.5723778999526985,800.0,50.0,33.0,10,False,2,up,0.16666666666666666,40,0.27273459994466975,0.6859943000017665,0.9587288999464363,0.2908500999910757,True,near-160,15,2,2,1.25,1.0,up,16,0
102,4,True,1.0413168999948539,800.0,50.0,33.0,0,False,2,down,0.16666666666666666,28,0,0.5534895000164397,0.5534895000164397,0.36391739995451644,True,near-000,15,3,2,1.875,1,down,4,0
103,1,True,2.485061699990183,800.0,800.0,50.0,0,False,0,up,0.16666666666666666,20,0,0.346507299982477,0.346507299982477,0.5199452000088058,True,near-rndm,15,11,8,6.875,1,up,8,1
104,2,True,1.0555654999916442,800.0,50.0,33.0,5,False,2,up,0.16666666666666666,36,0.09491879999404773,0.6208176999934949,0.7157364999875426,0.22665669996058568,True,near-080,15,12,7,7.5,1,up,8,1
105,1,True,1.1616823999793269,800.0,100.0,50.0,0,False,1,down,0.16666666666666666,12,0,0.23682560003362596,0.23682560003362596,1.7525202999822795,False,near-rnd2,15,2,0,1.25,1,down,4,0
106,2,True,1.3970690999994986,800.0,100.0,50.0,0,False,1,up,0.16666666666666666,14,0,0.28749399998923764,0.28749399998923764,0.8985755000030622,False,near-rnd2,16,1,0,0.625,1,up,2,0
107,2,True,1.1433871999615803,800.0,33.0,50.0,0,False,3,up,0.16666666666666666,56,0,0.9276589999790303,0.9276589999790303,0.6315504999947734,False,near-rnd3,16,4,2,2.5,1,up,4,0
108,4,True,3.0874542000237852,800.0,50.0,33.0,10,False,2,up,0.16666666666666666,40,0.18704709998564795,0.7130304999882355,0.9000775999738835,0.17515460000140592,False,near-160,16,3,2,1.875,1.0,up,16,0
109,4,True,0.9452232999610715,800.0,50.0,33.0,5,False,2,up,0.16666666666666666,36,0.11668899998767301,0.6381544999894686,0.7548434999771416,0.3244987999787554,True,near-080,16,13,8,8.125,1,up,8,1
110,2,True,1.6576343000051565,800.0,800.0,50.0,0,False,0,down,0.16666666666666666,18,0,0.3321758999954909,0.3321758999954909,0.9064040000084788,False,near-rndm,16,1,0,0.625,1,down,2,0
111,3,True,1.3812902999925427,800.0,50.0,33.0,15,False,2,up,0.16666666666666666,16,0.26803950004978105,0.3053592999931425,0.5733988000429235,0.6076253000064753,False,near-240,16,9,5,5.625,1,up,8,1
112,2,True,1.6172866999986582,800.0,50.0,33.0,0,False,2,down,0.16666666666666666,28,0,0.5002696999581531,0.5002696999581531,0.5850572999916039,False,near-000,16,4,2,2.5,1,down,4,0
113,1,True,1.1275186000275426,800.0,100.0,50.0,0,False,1,up,0.16666666666666666,14,0,0.2649882999830879,0.2649882999830879,0.8650738000287674,True,near-rnd2,17,2,1,1.25,2,up,2,0
114,1,True,1.3765914000105113,800.0,50.0,33.0,0,False,2,down,0.16666666666666666,28,0,0.49274309998145327,0.49274309998145327,0.7554961000569165,True,near-000,17,5,3,3.125,1,down,4,0
115,1,True,1.3948982000001706,800.0,33.0,50.0,0,False,3,up,0.16666666666666666,56,0,0.9152816000278108,0.9152816000278108,0.1072715999907814,True,near-rnd3,17,5,3,3.125,1,up,4,0
116,4,True,1.2571874000132084,800.0,50.0,33.0,15,False,2,up,0.16666666666666666,16,0.26996750000398606,0.3327976000146009,0.602765100018587,0.6816253999713808,True,near-240,17,10,6,6.25,1,up,8,1
117,2,True,1.7318406000267714,800.0,50.0,33.0,10,False,2,up,0.16666666666666666,40,0.17202060000272468,0.6993959000101313,0.871416500012856,0.1933458999847062,True,near-160,17,4,3,2.5,0.5,up,16,0
118,1,True,1.6559199999901466,800.0,800.0,50.0,0,False,0,down,0.16666666666666666,18,0,0.3117760000168346,0.3117760000168346,0.43634559999918565,True,near-rndm,17,2,1,1.25,2,down,2,0
119,3,True,1.0904597000335343,800.0,50.0,33.0,5,False,2,up,0.16666666666666666,36,0.10174379998352379,0.6338019000249915,0.7355457000085153,0.10341979999793693,True,near-080,17,14,9,8.75,1,up,8,1
120,2,True,1.5032754000276327,800.0,50.0,33.0,5,False,2,up,0.16666666666666666,36,0.10068949998822063,0.630784599983599,0.7314740999718197,0.1949505999800749,False,near-080,18,15,9,9.375,1,up,8,1
121,2,True,2.688584199990146,800.0,100.0,50.0,0,False,1,up,0.16666666666666666,14,0,0.28111189999617636,0.28111189999617636,0.5325850000372157,True,near-rnd2,18,3,2,1.875,2,up,2,0
122,2,True,2.021099300007336,800.0,50.0,33.0,10,False,2,up,0.16666666666666666,40,0.17131559998961166,0.686978799989447,0.8582943999790587,0.317467899993062,False,near-160,18,5,3,3.125,0.5,up,16,0
123,1,True,1.3490041999612004,800.0,800.0,50.0,0,False,0,down,0.16666666666666666,18,0,0.31560349999926984,0.31560349999926984,0.643387200019788,True,near-rndm,18,3,2,1.875,2,down,2,0
124,3,True,1.6298236000002362,800.0,50.0,33.0,0,False,2,down,0.16666666666666666,28,0,0.5087321000173688,0.5087321000173688,0.803339899983257,True,near-000,18,6,4,3.75,1,down,4,0
125,4,True,1.2889378999825567,800.0,50.0,33.0,15,False,2,up,0.16666666666666666,16,0.2730745999724604,0.33568580000428483,0.6087603999767452,0.35124200000427663,True,near-240,18,11,7,6.875,1,up,8,1
126,1,True,1.2339875999605283,800.0,33.0,50.0,0,False,3,up,0.16666666666666666,56,0,0.9138969000196084,0.9138969000196084,0.3299768000142649,False,near-rnd3,18,6,3,3.75,1,up,4,0
127,3,True,1.1417768999817781,800.0,50.0,33.0,5,False,2,up,0.16666666666666666,36,0.09830209997016937,0.6285639000125229,0.7268659999826923,0.329567400040105,True,near-080,19,16,10,10.0,1,up,8,1
128,1,True,1.960533800011035,800.0,50.0,33.0,0,False,2,down,0.16666666666666666,28,0,0.48274680000031367,0.48274680000031367,0.3099983999854885,True,near-000,19,7,5,4.375,1,down,4,0
129,1,True,1.220521799987182,800.0,100.0,50.0,0,False,1,up,0.16666666666666666,14,0,0.25900419999379665,0.25900419999379665,0.730788399989251,True,near-rnd2,19,4,3,2.5,2,up,2,0
130,4,True,1.108355499978643,800.0,50.0,33.0,10,False,2,up,0.16666666666666666,40,0.19151039997814223,0.7151028999942355,0.9066132999723777,0.20856200001435354,True,near-160,19,6,4,3.75,0.5,up,16,0
131,4,True,1.0304141000378877,800.0,33.0,50.0,0,False,3,up,0.16666666666666666,56,0,0.93956100003561,0.93956100003561,0.2616672999574803,True,near-rnd3,19,7,4,4.375,1,up,4,0
132,2,True,0.8922735000378452,800.0,50.0,33.0,15,False,2,up,0.16666666666666666,16,0.2521818000241183,0.31711010000435635,0.5692919000284746,0.3329284000210464,True,near-240,19,12,8,7.5,1,up,8,1
133,4,True,1.396821100031957,800.0,800.0,50.0,0,False,0,down,0.16666666666666666,18,0,0.35648349998518825,0.35648349998518825,0.2811598999542184,True,near-rndm,19,4,3,2.5,2,down,2,0
134,2,True,2.0034594000317156,800.0,50.0,33.0,15,False,2,up,0.16666666666666666,16,0.2513405000208877,0.3087964000296779,0.5601369000505656,0.4859508000081405,True,near-240,20,13,9,8.125,1,up,8,1
135,2,True,1.8353880000067875,800.0,50.0,33.0,0,False,2,down,0.16666666666666666,28,0,0.490188300027512,0.490188300027512,0.5237046999973245,False,near-000,20,8,5,5.0,1,down,4,0
136,2,True,0.9733142000040971,800.0,100.0,50.0,0,False,1,up,0.16666666666666666,14,0,0.26808949996484444,0.26808949996484444,0.690736900025513,True,near-rnd2,20,5,4,3.125,2,up,2,0
137,2,True,0.8595720999874175,800.0,50.0,33.0,5,False,2,up,0.16666666666666666,36,0.09879199997521937,0.6349449999979697,0.7337369999731891,0.4237790000042878,False,near-080,20,17,10,10.625,1,up,8,2
138,2,True,1.1897644000127912,800.0,50.0,33.0,10,False,2,up,0.16666666666666666,40,0.1793943999800831,0.6928752000094391,0.8722695999895222,0.24267489998601377,False,near-160,20,7,4,4.375,0.5,up,16,0
139,3,True,1.507246799999848,800.0,33.0,50.0,0,False,3,up,0.16666666666666666,56,0,0.9407139999675564,0.9407139999675564,0.32808169996133074,True,near-rnd3,20,8,5,5.0,1,up,4,0
140,4,True,1.1320171999977902,800.0,800.0,50.0,0,False,0,down,0.16666666666666666,18,0,0.35618000000249594,0.35618000000249594,0.42872639995766804,True,near-rndm,20,5,4,3.125,2,down,2,0
141,1,True,0.9943550000316463,800.0,800.0,50.0,0,False,0,down,0.16666666666666666,18,0,0.3133807000122033,0.3133807000122033,0.5462318999925628,True,near-rndm,21,6,5,3.75,2,down,2,0
142,1,True,0.8257405000040308,800.0,50.0,33.0,0,False,2,down,0.16666666666666666,28,0,0.48810359998606145,0.48810359998606145,0.7297421999974176,False,near-000,21,9,5,5.625,1,down,4,1
143,3,True,1.534710299980361,800.0,50.0,33.0,15,False,2,up,0.16666666666666666,16,0.26471489999676123,0.3176683000056073,0.5823832000023685,0.6129512999905273,True,near-240,21,14,10,8.75,1,up,8,1
144,3,True,1.3922041999758221,800.0,50.0,33.0,10,False,2,up,0.16666666666666666,40,0.18961189995752648,0.7025451000081375,0.892156999965664,0.6209031000034884,True,near-160,21,8,5,5.0,0.5,up,16,0
145,4,True,1.813855699962005,800.0,33.0,50.0,0,False,3,up,0.16666666666666666,56,0,0.9605863000033423,0.9605863000033423,0.08725599996978417,False,near-rnd3,21,9,5,5.625,1,up,4,1
146,2,True,2.5667150000226684,800.0,100.0,50.0,0,False,1,up,0.16666666666666666,14,0,0.2776192000019364,0.2776192000019364,0.47529740002937615,True,near-rnd2,21,6,5,3.75,2,up,2,0
147,2,True,1.892515999963507,800.0,50.0,33.0,5,False,2,up,0.16666666666666666,36,0.09899859997676685,0.6322522000409663,0.7312508000177331,0.13678739999886602,False,near-080,21,18,10,11.25,1,up,8,2
148,2,True,2.4024592000059783,800.0,800.0,50.0,0,False,0,down,0.16666666666666666,18,0,0.3230615999782458,0.3230615999782458,0.3738897999865003,True,near-rndm,22,7,6,4.375,2,down,2,0
149,2,True,1.0705553999869153,800.0,100.0,50.0,0,False,1,up,0.16666666666666666,14,0,0.2805064999847673,0.2805064999847673,0.60070499998983,True,near-rnd2,22,7,6,4.375,2,up,2,0
150,3,True,1.5845120000303723,800.0,50.0,33.0,10,False,2,up,0.16666666666666666,40,0.17624699999578297,0.708748499979265,0.884995499975048,0.1286198000307195,True,near-160,22,9,6,5.625,0.5,up,16,1
151,4,True,1.1591827000374906,800.0,33.0,50.0,0,False,3,up,0.16666666666666666,56,0,0.9465379999601282,0.9465379999601282,0.2277732000220567,False,near-rnd3,22,10,5,6.25,1,up,4,1
152,1,True,2.293358900002204,800.0,50.0,33.0,15,False,2,down,0.16666666666666666,14,0.24935940001159906,0.2683070999919437,0.5176665000035428,0.5254984999774024,True,near-240,22,1,1,0.625,1,down,2,0
153,1,True,4.110971599991899,800.0,50.0,33.0,5,False,2,up,0.16666666666666666,38,0.09124709997558966,0.6530737999710254,0.7443208999466151,0.20039850001921877,False,near-080,22,1,0,0.625,1,up,2,0
154,1,True,2.85366530000465,800.0,50.0,33.0,0,False,2,down,0.16666666666666666,28,0,0.6200012000044808,0.6200012000044808,0.2850869999965653,False,near-000,22,10,5,6.25,1,down,4,1
155,2,True,1.4306132000056095,800.0,50.0,33.0,0,False,2,up,0.16666666666666666,29,0,0.5041187999886461,0.5041187999886461,0.3521351999952458,True,near-000,23,1,1,0.625,1,up,1,0
156,2,True,1.8054187999805436,800.0,100.0,50.0,0,False,1,up,0.16666666666666666,14,0,0.27153099997667596,0.27153099997667596,0.6443587000248954,False,near-rnd2,23,8,6,5.0,2,up,2,0
157,3,True,1.2634205999784172,800.0,33.0,50.0,0,False,3,up,0.16666666666666666,58,0,0.959652499994263,0.959652499994263,1.3637053000275046,False,near-rnd3,23,1,0,0.625,1,up,2,0
158,7,True,1.4446051999693736,800.0,50.0,33.0,10,False,2,up,0.16666666666666666,40,0.2136418999871239,0.7254637999576516,0.9391056999447756,0.33701850002398714,False,near-160,23,10,6,6.25,0.5,up,16,1
159,1,True,2.057806900003925,800.0,50.0,33.0,15,False,2,down,0.16666666666666666,14,0.2506075999699533,0.26540440000826493,0.5160119999782182,0.7140823000227101,False,near-240,23,2,1,1.25,2,down,2,0
160,2,True,1.147004599974025,800.0,50.0,33.0,5,False,2,up,0.16666666666666666,38,0.09839920001104474,0.6695187999866903,0.767917999997735,0.4612864999799058,False,near-080,23,2,0,1.25,2,up,2,0
161,1,True,1.1652534000459127,800.0,800.0,50.0,0,False,0,down,0.16666666666666666,18,0,0.3108942999970168,0.3108942999970168,0.7119711000123061,True,near-rndm,23,8,7,5.0,2,down,2,0
162,1,True,1.3716186999808997,800.0,50.0,33.0,15,False,2,down,0.16666666666666666,14,0.25448649999452755,0.25948399998014793,0.5139704999746755,0.41036700003314763,True,near-240,24,3,2,1.875,2,down,2,0
163,3,True,1.7520507999579422,800.0,50.0,33.0,0,False,2,up,0.16666666666666666,29,0,0.5208370999898762,0.5208370999898762,0.34093940001912415,False,near-000,24,2,1,1.25,2,up,1,0
164,1,True,2.026382400013972,800.0,100.0,50.0,0,False,1,up,0.16666666666666666,14,0,0.26289870002074167,0.26289870002074167,1.298051799996756,True,near-rnd2,24,9,7,5.625,2,up,2,1
165,3,True,1.2426518999855034,800.0,800.0,50.0,0,False,0,down,0.16666666666666666,18,0,0.34189789998345077,0.34189789998345077,0.5978413000120781,True,near-rndm,24,9,8,5.625,2,down,2,1
166,3,True,1.2355561999720521,800.0,33.0,50.0,0,False,3,up,0.16666666666666666,58,0,0.9744411999708973,0.9744411999708973,0.7649990000063553,False,near-rnd3,24,2,0,1.25,2,up,2,0
167,1,True,1.4024954999913462,800.0,50.0,33.0,10,False,2,up,0.16666666666666666,40,0.1712407000013627,0.6846468999865465,0.8558875999879092,0.22696180001366884,False,near-160,24,11,6,6.875,0.5,up,16,1
168,3,True,1.436571299971547,800.0,50.0,33.0,5,False,2,up,0.16666666666666666,38,0.10260839998954907,0.6709691999712959,0.773577599960845,0.2056583000230603,True,near-080,24,3,1,1.875,2,up,2,0
169,1,True,1.0377256000065245,800.0,50.0,33.0,15,False,2,down,0.16666666666666666,14,0.2528994000167586,0.2629445999627933,0.5158439999795519,0.9484960000263527,True,near-240,25,4,3,2.5,2,down,2,0
170,2,True,0.9870751000125892,800.0,100.0,50.0,0,False,1,up,0.16666666666666666,14,0,0.2822852000244893,0.2822852000244893,0.588474899996072,True,near-rnd2,25,10,8,6.25,2,up,2,1
171,1,True,2.131074599979911,800.0,50.0,33.0,10,False,2,up,0.16666666666666666,56,0.1720369000104256,0.9370457999757491,1.1090826999861747,0.15603730001021177,True,near-160,25,1,1,0.625,0.5,up,16,0
172,4,True,1.2706719000125304,800.0,800.0,50.0,0,False,0,down,0.16666666666666666,17,0,0.33637580001959577,0.33637580001959577,0.4607912999927066,True,near-rndm,25,1,1,0.625,2,down,1,0
173,2,True,1.701264099974651,800.0,50.0,33.0,5,False,2,up,0.16666666666666666,38,0.09409020002931356,0.6525428000022657,0.7466330000315793,0.19268219999503344,False,near-080,25,4,1,2.5,2,up,2,0
174,3,True,1.1273525999858975,800.0,50.0,33.0,0,False,2,up,0.16666666666666666,29,0,0.5269805999705568,0.5269805999705568,0.5030437000095844,False,near-000,25,3,1,1.875,2,up,1,0
175,1,True,0.9321569000021555,800.0,33.0,50.0,0,False,3,up,0.16666666666666666,58,0,0.9519439000287093,0.9519439000287093,0.45352109998930246,True,near-rnd3,25,3,1,1.875,2,up,2,0
176,2,True,0.7712014999706298,800.0,800.0,50.0,0,False,0,down,0.16666666666666666,17,0,0.3148508000303991,0.3148508000303991,0.39180849998956546,True,near-rndm,26,2,2,1.25,2,down,1,0
177,1,True,2.265936799987685,800.0,33.0,50.0,0,False,3,up,0.16666666666666666,58,0,0.9498595999903046,0.9498595999903046,0.5825240999693051,False,near-rnd3,26,4,1,2.5,2,up,2,0
178,1,True,1.2536879999679513,800.0,50.0,33.0,10,False,2,up,0.16666666666666666,56,0.17681189998984337,0.9367138000088744,1.1135256999987178,0.4062936999835074,True,near-160,26,2,2,1.25,1.0,up,16,0
179,1,True,1.4718783000134863,800.0,50.0,33.0,5,False,2,up,0.16666666666666666,38,0.0886564000393264,0.6417603999725543,0.7304168000118807,0.06694520002929494,True,near-080,26,5,2,3.125,2,up,2,0
180,2,True,2.8575652000145055,800.0,50.0,33.0,15,False,2,down,0.16666666666666666,14,0.2538891999865882,0.2806847000028938,0.534573899989482,0.5565877999761142,True,near-240,26,5,4,3.125,2,down,2,0
181,3,True,1.1816860000253655,800.0,100.0,50.0,0,False,1,up,0.16666666666666666,14,0,0.27373980003176257,0.27373980003176257,0.7155121999676339,False,near-rnd2,26,11,8,6.875,2,up,2,1
182,1,True,1.7680758999777026,800.0,50.0,33.0,0,False,2,up,0.16666666666666666,29,0,0.504252299957443,0.504252299957443,0.2574554000166245,True,near-000,26,4,2,2.5,2,up,1,0
183,3,True,1.1419271999620833,800.0,33.0,50.0,0,False,3,up,0.16666666666666666,58,0,0.9680218999856152,0.9680218999856152,0.40173539996612817,True,near-rnd3,27,5,2,3.125,2,up,2,0
184,1,True,1.4135783999809064,800.0,50.0,33.0,10,False,2,up,0.16666666666666666,56,0.16817250003805384,0.9400343999732286,1.1082069000112824,0.3692975000012666,False,near-160,27,3,2,1.875,1.0,up,16,0
185,2,True,1.1224756999872625,800.0,800.0,50.0,0,False,0,down,0.16666666666666666,17,0,0.3077460000058636,0.3077460000058636,0.3763130000443198,True,near-rndm,27,3,3,1.875,2,down,1,0
186,2,True,4.493063999980222,800.0,50.0,33.0,0,False,2,up,0.16666666666666666,29,0,0.5112336000311188,0.5112336000311188,0.8253358999500051,True,near-000,27,5,3,3.125,2,up,1,0
187,4,True,1.3713778000092134,800.0,100.0,50.0,0,False,1,up,0.16666666666666666,14,0,0.2949925000430085,0.2949925000430085,0.5131546999909915,False,near-rnd2,27,12,8,7.5,2,up,2,1
188,2,True,1.0662921000039205,800.0,50.0,33.0,5,False,2,up,0.16666666666666666,38,0.09178270003758371,0.6549146000179462,0.7466973000555299,0.11262189998524264,False,near-080,27,6,2,3.75,2,up,2,0
189,2,True,1.456603400001768,800.0,50.0,33.0,15,False,2,down,0.16666666666666666,14,0.26075980003224686,0.2819426999776624,0.5427025000099093,0.5499961000168696,False,near-240,27,6,4,3.75,2,down,2,0
190,1,True,1.0695370999746956,800.0,50.0,33.0,10,False,2,up,0.16666666666666666,56,0.1710686999722384,0.9401488999719732,1.1112175999442115,0.41246100002899766,False,near-160,28,4,2,2.5,0.5,up,16,0
191,4,True,1.9406822000164539,800.0,800.0,50.0,0,False,0,down,0.16666666666666666,17,0,0.34011610003653914,0.34011610003653914,0.496105499973055,True,near-rndm,28,4,4,2.5,2,down,1,0
192,1,True,2.1806535000214353,800.0,100.0,50.0,0,False,1,up,0.16666666666666666,14,0,0.26268500002333894,0.26268500002333894,2.7327701000031084,False,near-rnd2,28,13,8,8.125,2,up,2,1
193,1,True,1.464921000006143,800.0,50.0,33.0,15,False,2,down,0.16666666666666666,14,0.252154000045266,0.26482419995591044,0.5169782000011764,0.5244954000227153,True,near-240,28,7,5,4.375,2,down,2,0
194,1,True,1.083762000023853,800.0,50.0,33.0,5,False,2,up,0.16666666666666666,38,0.093378700024914,0.6467893000226468,0.7401680000475608,0.03649739996762946,False,near-080,28,7,2,4.375,2,up,2,0
195,2,True,0.9393985000206158,800.0,33.0,50.0,0,False,3,up,0.16666666666666666,58,0,0.9564495999948122,0.9564495999948122,0.25772569997934625,False,near-rnd3,28,6,2,3.75,2,up,2,0
196,1,True,1.23541819996899,800.0,50.0,33.0,0,False,2,up,0.16666666666666666,29,0,0.4973549999995157,0.4973549999995157,0.3144190000020899,True,near-000,28,6,4,3.75,2,up,1,0
197,2,True,0.8588677999796346,800.0,33.0,50.0,0,False,3,up,0.16666666666666666,58,0,0.9561633999692276,0.9561633999692276,0.4719106000266038,True,near-rnd3,29,7,3,4.375,2,up,2,0
198,2,True,0.8335854000179097,800.0,100.0,50.0,0,False,1,up,0.16666666666666666,14,0,0.2777900999644771,0.2777900999644771,0.4579174999962561,True,near-rnd2,29,14,9,8.75,2,up,2,1
199,4,True,1.0761362999910489,800.0,800.0,50.0,0,False,0,down,0.16666666666666666,17,0,0.32706450001569465,0.32706450001569465,0.44296059996122494,True,near-rndm,29,5,5,3.125,2,down,1,0
200,2,True,1.192748199973721,800.0,50.0,33.0,5,False,2,up,0.16666666666666666,40,0.09802899998612702,0.6843577999970876,0.7823867999832146,0.06422830000519753,False,near-080,29,1,0,0.625,2,up,2,0
201,2,True,1.4477258999831975,800.0,50.0,33.0,10,False,2,up,0.16666666666666666,56,0.17895440000575036,0.9440004999632947,1.122954899969045,0.20819550001760945,True,near-160,29,5,3,3.125,0.5,up,16,0
202,2,True,1.7280162000097334,800.0,50.0,33.0,15,False,2,down,0.16666666666666666,14,0.2605898000183515,0.27008770004613325,0.5306775000644848,0.5652758000069298,True,near-240,29,8,6,5.0,2,down,2,0
203,4,True,2.0862457000184804,800.0,50.0,33.0,0,False,2,up,0.16666666666666666,29,0,0.5197172000189312,0.5197172000189312,0.3662840999895707,True,near-000,29,7,5,4.375,2,up,1,0
204,3,True,1.3210133999818936,800.0,50.0,33.0,0,False,2,up,0.16666666666666666,29,0,0.5212460000184365,0.5212460000184365,0.3151681000017561,False,near-000,30,8,5,5.0,2,up,1,0
205,1,True,1.778695900051389,800.0,800.0,50.0,0,False,0,down,0.16666666666666666,17,0,0.30023809999693185,0.30023809999693185,0.40778880001744255,True,near-rndm,30,6,6,3.75,2,down,1,0
206,2,True,3.0487404000014067,800.0,33.0,50.0,0,False,3,up,0.16666666666666666,58,0,0.9639154999749735,0.9639154999749735,0.256895300000906,False,near-rnd3,30,8,3,5.0,2,up,2,0
207,3,True,1.7257556000258774,800.0,50.0,33.0,10,False,2,up,0.16666666666666666,56,0.1907146999728866,0.949066600005608,1.1397812999784946,0.45704720000503585,True,near-160,30,6,4,3.75,0.5,up,16,0
208,1,True,2.170241800020449,800.0,100.0,50.0,0,False,1,up,0.16666666666666666,14,0,0.2709892999846488,0.2709892999846488,0.45995839999523014,True,near-rnd2,30,15,10,9.375,2,up,2,1
209,2,True,1.5709771999972872,800.0,50.0,33.0,5,False,2,up,0.16666666666666666,40,0.09082909999415278,0.6831508000032045,0.7739798999973573,0.10197719995630905,False,near-080,30,2,0,1.25,2,up,2,0
210,3,True,0.9245884999982081,800.0,50.0,33.0,15,False,2,down,0.16666666666666666,14,0.266045700001996,0.31866119999904186,0.5847069000010379,0.6114556999527849,False,near-240,30,9,6,5.625,2,down,2,1
211,1,True,2.2942779999575578,800.0,50.0,33.0,10,False,2,up,0.16666666666666666,56,0.16899189999094233,0.9302710000192747,1.099262900010217,0.12041199998930097,True,near-160,31,7,5,4.375,0.5,up,16,0
212,2,True,2.078160800039768,800.0,100.0,50.0,0,False,1,up,0.16666666666666666,14,0,0.28054349997546524,0.28054349997546524,0.4994320999830961,True,near-rnd2,31,16,11,10.0,2,up,2,1
213,2,True,0.8841511000064202,800.0,33.0,50.0,0,False,3,up,0.16666666666666666,58,0,0.958482299989555,0.958482299989555,6.659898300014902,True,near-rnd3,31,9,4,5.625,2,up,2,1
214,3,True,1.6088801000150852,800.0,50.0,33.0,5,False,2,up,0.16666666666666666,40,0.10071580001385882,0.6945196000160649,0.7952354000299238,0.5817580000148155,False,near-080,31,3,0,1.875,2,up,2,0
215,4,True,1.068138899980113,800.0,50.0,33.0,0,False,2,up,0.16666666666666666,29,0,0.5282829999923706,0.5282829999923706,0.517664099985268,True,near-000,31,9,6,5.625,2,up,1,1
216,4,True,0.8482274999842048,800.0,50.0,33.0,15,False,2,down,0.16666666666666666,14,0.277325099974405,0.290341800020542,0.567666899994947,0.29158339998684824,False,near-240,31,10,6,6.25,2,down,2,1
217,1,True,1.3613638000097126,800.0,800.0,50.0,0,False,0,down,0.16666666666666666,16,0,0.28644419996999204,0.28644419996999204,0.5115201000007801,True,near-rndm,31,1,1,0.625,2,down,1,0
218,2,True,1.0712786000221968,800.0,800.0,50.0,0,False,0,down,0.16666666666666666,16,0,0.29236079996917397,0.29236079996917397,0.40782110003056005,True,near-rndm,32,2,2,1.25,2,down,1,0
219,2,True,1.2340110000222921,800.0,50.0,33.0,10,False,2,down,0.16666666666666666,48,0.17463419999694452,0.8966963000129908,1.0713305000099353,0.1503859999938868,False,near-160,32,1,0,0.625,0.5,down,8,0
220,2,True,1.0492408000282012,800.0,100.0,50.0,0,False,1,up,0.16666666666666666,14,0,0.2754268000135198,0.2754268000135198,0.7923167999833822,False,near-rnd2,32,17,11,10.625,2,up,2,2
221,3,True,0.6762620999943465,800.0,50.0,33.0,5,False,2,up,0.16666666666666666,40,0.10074439999880269,0.6940512000001036,0.7947955999989063,0.6487649999908172,False,near-080,32,4,0,2.5,2,up,2,0
222,3,True,0.9159814000013284,800.0,33.0,50.0,0,False,3,up,0.16666666666666666,58,0,0.9671745999949053,0.9671745999949053,0.45468190003884956,True,near-rnd3,32,10,5,6.25,2,up,2,1
223,2,True,0.9689384000375867,800.0,50.0,33.0,0,False,2,up,0.16666666666666666,29,0,0.5167758000316098,0.5167758000316098,0.21706840000115335,False,near-000,32,10,6,6.25,2,up,1,1
224,2,True,1.327937199966982,800.0,50.0,33.0,15,False,2,down,0.16666666666666666,14,0.255550800007768,0.26774209999712184,0.5232929000048898,0.32521829998586327,False,near-240,32,11,6,6.875,2,down,2,1
225,2,True,1.3402441999642178,800.0,33.0,50.0,0,False,3,up,0.16666666666666666,58,0,0.9554743000189774,0.9554743000189774,0.023993999988306314,True,near-rnd3,33,11,6,6.875,2,up,2,1
226,1,True,3.481482799979858,800.0,50.0,33.0,0,False,2,up,0.16666666666666666,29,0,0.5004906000103801,0.5004906000103801,0.7826453000307083,False,near-000,33,11,6,6.875,2,up,1,1
227,1,True,1.0957741999882273,800.0,50.0,33.0,5,False,2,up,0.16666666666666666,44,0.08732039999449626,0.7432899000123143,0.8306103000068106,0.5319243000121787,False,near-080,33,1,0,0.625,2,up,4,0
228,2,True,0.9608953999704681,800.0,50.0,33.0,10,False,2,down,0.16666666666666666,48,0.17488760000560433,0.828646799956914,1.0035343999625184,0.4736369000165723,False,near-160,33,2,0,1.25,1,down,8,0
229,2,True,1.5959691000171006,800.0,100.0,50.0,0,False,1,up,0.16666666666666666,14,0,0.2737820000038482,0.2737820000038482,0.5363787999958731,True,near-rnd2,33,18,12,11.25,2,up,2,2
230,1,True,2.8325142999528907,800.0,800.0,50.0,0,False,0,down,0.16666666666666666,16,0,0.28586569998878986,0.28586569998878986,0.5666823000065051,True,near-rndm,33,3,3,1.875,2,down,1,0
231,5,True,2.815394799981732,800.0,50.0,33.0,15,False,2,down,0.16666666666666666,14,0.2834333999780938,0.2910779999801889,0.5745113999582827,0.6408310999977402,True,near-240,33,12,7,7.5,2,down,2,1
232,1,True,1.9741527999867685,800.0,50.0,33.0,15,False,2,down,0.16666666666666666,14,0.2514816999901086,0.2651209000032395,0.5166025999933481,0.5409769999678247,True,near-240,34,13,8,8.125,2,down,2,1
233,2,True,1.315813800028991,800.0,100.0,50.0,0,False,1,up,0.16666666666666666,14,0,0.2838614999782294,0.2838614999782294,0.50660640001297,False,near-rnd2,34,19,12,11.875,2,up,2,2
234,2,True,1.050964499998372,800.0,33.0,50.0,0,False,3,up,0.16666666666666666,58,0,0.9559883999754675,0.9559883999754675,0.6896536000422202,False,near-rnd3,34,12,6,7.5,2,up,2,1
235,2,True,1.099653200013563,800.0,50.0,33.0,10,False,2,up,0.16666666666666666,52,0.17589730001054704,0.885164299979806,1.061061599990353,0.18824649997986853,True,near-160,34,1,1,0.625,1,up,4,0
236,3,True,1.0355612999992445,800.0,50.0,33.0,0,False,2,up,0.16666666666666666,29,0,0.5283373999991454,0.5283373999991454,0.2529964999994263,False,near-000,34,12,6,7.5,2,up,1,1
237,3,True,2.00303389999317,800.0,50.0,33.0,5,False,2,up,0.16666666666666666,44,0.09584560000803322,0.7638637999771163,0.8597093999851495,0.5629594000056386,False,near-080,34,2,0,1.25,1,up,4,0
238,1,True,1.6303943000384606,800.0,800.0,50.0,0,False,0,down,0.16666666666666666,16,0,0.28540749999228865,0.28540749999228865,0.5364872999489307,True,near-rndm,34,4,4,2.5,2,down,1,0
239,2,True,1.0320497000357136,800.0,33.0,50.0,0,False,3,up,0.16666666666666666,58,0,0.9614619999774732,0.9614619999774732,0.21551440004259348,False,near-rnd3,35,13,6,8.125,2,up,2,1
240,1,True,1.2910789999878034,800.0,50.0,33.0,0,False,2,up,0.16666666666666666,29,0,0.5011720000184141,0.5011720000184141,0.4830027000280097,False,near-000,35,13,6,8.125,2,up,1,1
241,1,True,1.2469122000038624,800.0,50.0,33.0,5,False,2,up,0.16666666666666666,52,0.08733319997554645,0.8740157000138424,0.9613488999893889,0.5771173000102863,True,near-080,35,1,1,0.625,1,up,8,0
242,4,True,1.5395146000082605,800.0,50.0,33.0,15,False,2,down,0.16666666666666666,14,0.2752701999852434,0.2987614999874495,0.5740316999726929,0.9228536000009626,False,near-240,35,14,8,8.75,2,down,2,1
243,1,True,1.2885531999636441,800.0,100.0,50.0,0,False,1,up,0.16666666666666666,14,0,0.26071699999738485,0.26071699999738485,0.27117029996588826,False,near-rnd2,35,20,12,12.5,2,up,2,2
244,1,True,1.4306029999861494,800.0,800.0,50.0,0,False,0,down,0.16666666666666666,16,0,0.28839389997301623,0.28839389997301623,0.2685417999746278,True,near-rndm,35,5,5,3.125,2,down,1,0
245,2,True,1.1644190999795683,800.0,50.0,33.0,10,False,2,up,0.16666666666666666,52,0.17834400001447648,0.8843315999838524,1.0626755999983288,0.12740369996754453,False,near-160,35,2,1,1.25,1,up,4,0
246,1,True,1.759610100009013,800.0,50.0,33.0,10,False,2,up,0.16666666666666666,52,0.16973650001455098,0.8681630000355653,1.0378995000501163,0.33042079996084794,False,near-160,36,3,1,1.875,1,up,4,0
247,5,True,2.238647799997125,800.0,50.0,33.0,5,False,2,up,0.16666666666666666,52,0.1125952000147663,0.910708200011868,1.0233034000266343,0.3214813999948092,False,near-080,36,2,1,1.25,1,up,8,0
248,2,True,4.487777000002097,800.0,50.0,33.0,15,False,2,down,0.16666666666666666,14,0.2868950000265613,0.2705157999880612,0.5574108000146225,0.5100163000170141,False,near-240,36,15,8,9.375,2,down,2,1
249,3,True,1.843282000045292,800.0,33.0,50.0,0,False,3,up,0.16666666666666666,60,0,1.0031788000487722,1.0031788000487722,0.09735479997470975,False,near-rnd3,36,1,0,0.625,2,up,2,0
250,2,True,3.1647663000039756,800.0,800.0,50.0,0,False,0,down,0.16666666666666666,16,0,0.30026940000243485,0.30026940000243485,0.43619290000060573,False,near-rndm,36,6,5,3.75,2,down,1,0
251,1,True,1.3424317999742925,800.0,100.0,50.0,0,False,1,up,0.16666666666666666,14,0,0.26171550003346056,0.26171550003346056,0.42749009997351095,False,near-rnd2,36,21,12,13.125,2,up,2,2
252,2,True,1.1355982999666594,800.0,50.0,33.0,0,False,2,up,0.16666666666666666,30,0,0.5279790000058711,0.5279790000058711,0.22258970001712441,True,near-000,36,1,1,0.625,2,up,1,0
253,3,True,1.1541880000149831,800.0,100.0,50.0,0,False,1,up,0.16666666666666666,14,0,0.2780530000454746,0.2780530000454746,0.41940450004767627,True,near-rnd2,37,22,13,13.75,2,up,2,2
254,3,True,1.0294524999917485,800.0,50.0,33.0,5,False,2,up,0.16666666666666666,52,0.0999928999808617,0.8998906000051647,0.9998834999860264,0.045976499968674034,True,near-080,37,3,2,1.875,1,up,8,0
255,3,True,1.7380806999863125,800.0,33.0,50.0,0,False,3,up,0.16666666666666666,60,0,0.9944157000281848,0.9944157000281848,0.25100629997905344,False,near-rnd3,37,2,0,1.25,2,up,2,0
256,1,True,1.0341646000160836,800.0,50.0,33.0,10,False,2,up,0.16666666666666666,52,0.17588789999717847,0.8686536999884993,1.0445415999856777,0.4803868999588303,False,near-160,37,4,1,2.5,1,up,4,0
257,2,True,1.440669700037688,800.0,50.0,33.0,0,False,2,up,0.16666666666666666,30,0,0.5341101000085473,0.5341101000085473,0.17459439998492599,False,near-000,37,2,1,1.25,3,up,1,0
258,2,True,2.1048787999898195,800.0,800.0,50.0,0,False,0,down,0.16666666666666666,16,0,0.2941919000004418,0.2941919000004418,0.37694500002544373,True,near-rndm,37,7,6,4.375,2,down,1,0
259,3,True,0.9343807999975979,800.0,50.0,33.0,15,False,2,down,0.16666666666666666,14,0.26687589997891337,0.37930089997826144,0.6461767999571748,0.18797220004489645,True,near-240,37,16,9,10.0,2,down,2,1
260,2,True,1.2591977000120096,800.0,800.0,50.0,0,False,0,down,0.16666666666666666,16,0,0.2894009000156075,0.2894009000156075,0.48827820003498346,False,near-rndm,38,8,6,5.0,2,down,1,0
261,2,True,1.1934950000140816,800.0,50.0,33.0,10,False,2,up,0.16666666666666666,56,0.17919669998809695,0.953205700032413,1.13240240002051,0.15530829998897389,False,near-160,38,1,0,0.625,1,up,4,0
262,2,True,0.9455254999920726,800.0,50.0,33.0,5,False,2,up,0.16666666666666666,52,0.09714580001309514,0.8777570000384003,0.9749028000514954,0.13146830000914633,True,near-080,38,4,3,2.5,1,up,8,0
263,1,True,2.247890400001779,800.0,33.0,50.0,0,False,3,up,0.16666666666666666,60,0,0.9836931999889202,0.9836931999889202,0.2707099999533966,False,near-rnd3,38,3,0,1.875,2,up,2,0
264,2,True,0.9487044000416063,800.0,50.0,33.0,15,False,2,down,0.16666666666666666,14,0.25658550002845004,0.2753777999896556,0.5319633000181057,0.15143590001389384,True,near-240,38,17,10,10.625,2,down,2,2
265,4,True,1.4690201000194065,800.0,50.0,33.0,0,False,2,up,0.16666666666666666,30,0,0.5509790999931283,0.5509790999931283,0.07922160002635792,False,near-000,38,3,1,1.875,3,up,1,0
266,3,True,2.091876200051047,800.0,100.0,50.0,0,False,1,up,0.16666666666666666,14,0,0.27551830001175404,0.27551830001175404,0.44047089997911826,False,near-rnd2,38,23,13,14.375,2,up,2,2
267,3,True,1.0715470999712124,800.0,50.0,33.0,0,False,2,up,0.16666666666666666,30,0,0.5430220999987796,0.5430220999987796,0.27647839998826385,True,near-000,39,4,2,2.5,3,up,1,0
268,1,True,1.0089117000461556,800.0,100.0,50.0,0,False,1,up,0.16666666666666666,14,0,0.26677260000724345,0.26677260000724345,0.5069725999492221,True,near-rnd2,39,24,14,15.0,2,up,2,2
269,3,True,1.1065815999754705,800.0,50.0,33.0,10,False,2,up,0.16666666666666666,56,0.1760278000147082,0.9532707000034861,1.1292985000181943,0.07556550001027063,False,near-160,39,2,0,1.25,1,up,4,0
270,4,True,1.0187915000133216,800.0,50.0,33.0,5,False,2,up,0.16666666666666666,52,0.11538749997271225,0.906470799993258,1.0218582999659702,0.08734039997216314,False,near-080,39,5,3,3.125,1,up,8,0
271,2,True,1.3997779000201263,800.0,50.0,33.0,15,False,2,down,0.16666666666666666,14,0.25028729997575283,0.2731980999815278,0.5234853999572806,0.4114257000037469,False,near-240,39,18,10,11.25,2,down,2,2
272,3,True,0.9245247000362724,800.0,800.0,50.0,0,False,0,down,0.16666666666666666,16,0,0.3113840000005439,0.3113840000005439,0.5096606000442989,True,near-rndm,39,9,7,5.625,2,down,1,1
273,1,True,2.8511918000294827,800.0,33.0,50.0,0,False,3,up,0.16666666666666666,60,0,0.9828740999801084,0.9828740999801084,0.11867930000880733,False,near-rnd3,39,4,0,2.5,2,up,2,0
274,3,True,1.0215165999834426,800.0,50.0,33.0,0,False,2,up,0.16666666666666666,30,0,0.5728437000070699,0.5728437000070699,0.16947119997348636,False,near-000,40,5,2,3.125,3,up,1,0
275,2,True,1.4138994000386447,800.0,33.0,50.0,0,False,3,up,0.16666666666666666,64,0,1.0570082000340335,1.0570082000340335,0.06033649999881163,False,near-rnd3,40,1,0,0.625,2,up,4,0
276,1,True,0.9896019999869168,800.0,50.0,33.0,15,False,2,down,0.16666666666666666,14,0.246394700021483,0.26126230001682416,0.5076570000383072,0.10591509996447712,True,near-240,40,19,11,11.875,2,down,2,2
277,4,True,1.4515091000357643,800.0,50.0,33.0,10,False,2,up,0.16666666666666666,60,0.18192209996050224,1.037242399994284,1.2191644999547862,0.23301889997674152,False,near-160,40,1,0,0.625,1,up,4,0
278,1,True,1.9094392000115477,800.0,50.0,33.0,5,False,2,up,0.16666666666666666,52,0.08959709998453036,0.8777225000085309,0.9673195999930613,0.24495460005709901,False,near-080,40,6,3,3.75,1,up,8,0
279,2,True,0.9928595999954268,800.0,800.0,50.0,0,False,0,down,0.16666666666666666,16,0,0.28873999998904765,0.28873999998904765,0.5926966000115499,True,near-rndm,40,10,8,6.25,2,down,1,1
280,3,True,0.9846732000005431,800.0,50.0,33.0,10,False,2,up,0.16666666666666666,60,0.19071059999987483,1.0321595999994315,1.2228701999993064,0.3254678000230342,False,near-160,41,2,0,1.25,1,up,4,0
281,4,True,1.0751920999609865,800.0,50.0,33.0,15,False,2,down,0.16666666666666666,14,0.25999379996210337,0.31040449999272823,0.5703982999548316,0.16994809999596328,False,near-240,41,20,11,12.5,2,down,2,2
282,1,True,1.4516818999545649,800.0,50.0,33.0,5,False,2,up,0.16666666666666666,52,0.08601589995669201,0.8712693999987096,0.9572852999554016,0.19891089998418465,True,near-080,41,7,4,4.375,1,up,8,0
283,4,True,1.3598770999815315,800.0,800.0,50.0,0,False,0,down,0.16666666666666666,16,0,0.3140700999647379,0.3140700999647379,0.4203265000251122,True,near-rndm,41,11,9,6.875,2,down,1,1
284,3,True,1.5057053999626078,800.0,33.0,50.0,0,False,3,up,0.16666666666666666,64,0,1.0680254999897443,1.0680254999897443,0.20853790000546724,False,near-rnd3,41,2,0,1.25,1,up,4,0
285,2,True,1.4680484000127763,800.0,50.0,33.0,0,False,2,up,0.16666666666666666,30,0,0.5318871000199579,0.5318871000199579,0.38378689996898174,True,near-000,41,6,3,3.75,3,up,1,0
286,1,True,1.4857931000296958,800.0,50.0,33.0,5,False,2,up,0.16666666666666666,52,0.09149509994313121,0.8743356000049971,0.9658306999481283,0.09796849999111146,False,near-080,42,8,4,5.0,1,up,8,0
287,3,True,1.1074753999710083,800.0,800.0,50.0,0,False,0,down,0.16666666666666666,15,0,0.29622149997157976,0.29622149997157976,3.5996134000015445,False,near-rndm,42,1,0,0.625,2,down,1,0
288,2,True,1.4755322999553755,800.0,50.0,33.0,0,False,2,up,0.16666666666666666,30,0,0.5283112999750301,0.5283112999750301,0.15159989998210222,False,near-000,42,7,3,4.375,3,up,1,0
289,2,True,1.0667695999727584,800.0,50.0,33.0,15,False,2,down,0.16666666666666666,14,0.2550428000395186,0.27353710000170395,0.5285799000412226,0.17120759998215362,False,near-240,42,21,11,13.125,2,down,2,2
290,1,True,1.227914499992039,800.0,33.0,50.0,0,False,3,up,0.16666666666666666,72,0,1.1741208000457846,1.1741208000457846,0.2739383999723941,True,near-rnd3,42,1,1,0.625,1,up,8,0
291,1,True,1.614969199988991,800.0,50.0,33.0,10,False,2,up,0.16666666666666666,64,0.17121429997496307,1.0632974000182003,1.2345116999931633,0.9582030999590643,True,near-160,42,1,1,0.625,1,up,4,0
292,2,True,1.9990671999985352,800.0,33.0,50.0,0,False,3,up,0.16666666666666666,72,0,1.1826618000050075,1.1826618000050075,0.43822600005660206,True,near-rnd3,43,2,2,1.25,1,up,8,0
293,2,True,1.2275415000040084,800.0,50.0,33.0,10,False,2,up,0.16666666666666666,64,0.17590390000259504,1.0649946000194177,1.2408985000220127,0.3545225999550894,True,near-160,43,2,2,1.25,1,up,4,0
294,5,True,1.2870144000044093,800.0,800.0,50.0,0,False,0,down,0.16666666666666666,15,0,0.3112886000308208,0.3112886000308208,0.40396580001106486,True,near-rndm,43,2,1,1.25,2,down,1,0
295,3,True,0.9006766999955289,800.0,50.0,33.0,0,False,2,up,0.16666666666666666,30,0,0.5481122999917716,0.5481122999917716,0.34921989997383207,False,near-000,43,8,3,5.0,3,up,1,0
296,1,True,1.0442753999959677,800.0,50.0,33.0,5,False,2,up,0.16666666666666666,52,0.09207299997797236,0.8709673999692313,0.9630403999472037,0.20606890000635758,True,near-080,43,9,5,5.625,1,up,8,1
297,1,True,1.3791860999772325,800.0,33.0,50.0,0,False,3,up,0.16666666666666666,72,0,1.1757324000354856,1.1757324000354856,0.20356260001426563,False,near-rnd3,44,3,2,1.875,1,up,8,0
298,1,True,2.0590291999978945,800.0,50.0,33.0,10,False,2,up,0.16666666666666666,64,0.16781080001965165,1.0618789000436664,1.229689700063318,0.1196442999644205,True,near-160,44,3,3,1.875,1,up,4,0
299,2,True,1.2988727999618277,800.0,50.0,33.0,5,False,2,up,0.16666666666666666,52,0.09980530000757426,0.879306800023187,0.9791121000307612,0.31516539998119697,True,near-080,44,10,6,6.25,1,up,8,1
300,2,True,0.8881175999995321,800.0,800.0,50.0,0,False,0,down,0.16666666666666666,15,0,0.2747788000269793,0.2747788000269793,0.3824555999599397,True,near-rndm,44,3,2,1.875,2,down,1,0
301,2,True,0.9008617000072263,800.0,800.0,50.0,0,False,0,down,0.16666666666666666,15,0,0.28330070001538843,0.28330070001538843,0.4204316000104882,True,near-rndm,45,4,3,2.5,2,down,1,0
302,1,True,2.3851704000262544,800.0,50.0,33.0,10,False,2,down,0.16666666666666666,62,0.171904299990274,1.159098099975381,1.331002399965655,0.44169740000506863,True,near-160,45,1,1,0.625,1,down,2,0
303,2,True,1.1812995999935083,800.0,33.0,50.0,0,False,3,up,0.16666666666666666,72,0,1.1836687999893911,1.1836687999893911,0.3757640999974683,False,near-rnd3,45,4,2,2.5,1,up,8,0
304,2,True,0.998424299992621,800.0,50.0,33.0,5,False,2,up,0.16666666666666666,52,0.09820339997531846,0.8885691000032239,0.9867724999785423,0.126234499970451,True,near-080,45,11,7,6.875,1,up,8,1
305,2,True,1.9534106000210159,800.0,50.0,33.0,10,False,2,down,0.16666666666666666,62,0.17414740001549944,1.050421499996446,1.2245689000119455,0.12352399999508634,False,near-160,46,2,1,1.25,2,down,2,0
306,2,True,1.0591250999714248,800.0,50.0,33.0,5,False,2,up,0.16666666666666666,52,0.0995352000463754,0.8814960000454448,0.9810312000918202,0.14907829998992383,False,near-080,46,12,7,7.5,1,up,8,1
307,3,True,1.5093093000468798,800.0,800.0,50.0,0,False,0,down,0.16666666666666666,15,0,0.28598410001723096,0.28598410001723096,0.39386749995173886,True,near-rndm,46,5,4,3.125,2,down,1,0
308,4,True,1.0377433000248857,800.0,33.0,50.0,0,False,3,up,0.16666666666666666,72,0,1.2015594000113197,1.2015594000113197,0.2307262999820523,False,near-rnd3,46,5,2,3.125,1,up,8,0
309,1,True,0.9408377000363544,800.0,50.0,33.0,5,False,2,up,0.16666666666666666,52,0.08758569997735322,0.8735275999642909,0.9611132999416441,0.2796113000367768,False,near-080,47,13,7,8.125,1,up,8,1
310,3,True,0.9333160000387579,800.0,33.0,50.0,0,False,3,up,0.16666666666666666,80,0,1.3232369999750517,1.3232369999750517,0.24570119997952133,False,near-rnd3,47,1,0,0.625,1,up,16,0
311,1,True,2.0352762999827974,800.0,800.0,50.0,0,False,0,down,0.16666666666666666,15,0,0.2761361999437213,0.2761361999437213,0.4189891999703832,True,near-rndm,47,6,5,3.75,2,down,1,0
312,3,True,1.8386092000291683,800.0,50.0,33.0,10,False,2,down,0.16666666666666666,62,0.18495729996357113,1.0647538999910466,1.2497111999546178,0.054624599986709654,True,near-160,47,3,2,1.875,2,down,2,0
313,1,True,1.4184341999934986,800.0,33.0,50.0,0,False,3,up,0.16666666666666666,80,0,1.303084199957084,1.303084199957084,0.2694228000473231,False,near-rnd3,48,2,0,1.25,1.0,up,16,0
314,3,True,1.1653257999569178,800.0,50.0,33.0,10,False,2,down,0.16666666666666666,62,0.1905401999829337,1.050301600014791,1.2408417999977246,1.605184799991548,True,near-160,48,4,3,2.5,2,down,2,0
315,2,True,1.0012254000175744,800.0,50.0,33.0,5,False,2,up,0.16666666666666666,60,0.09247329999925569,1.020763399952557,1.1132366999518126,0.32170830003451556,False,near-080,48,1,0,0.625,1,up,8,0
316,1,True,1.1627076999866404,800.0,800.0,50.0,0,False,0,down,0.16666666666666666,15,0,0.26347180001903325,0.26347180001903325,0.5123388000065461,True,near-rndm,48,7,6,4.375,2,down,1,0
317,2,True,1.2284369000117294,800.0,50.0,33.0,10,False,2,down,0.16666666666666666,62,0.17769420001422986,1.0451505000237375,1.2228447000379674,0.31833179999375716,False,near-160,49,5,3,3.125,2,down,2,0
318,3,True,2.558744400041178,800.0,50.0,33.0,5,False,2,up,0.16666666666666666,60,0.11290850001387298,1.0239765999722295,1.1368850999861024,0.7418134000035934,False,near-080,49,2,0,1.25,1,up,8,0
319,3,True,0.9078256000066176,800.0,33.0,50.0,0,False,3,up,0.16666666666666666,80,0,1.3187060999916866,1.3187060999916866,1.6687040999531746,True,near-rnd3,49,1,1,0.625,1.0,up,16,0
320,2,True,1.3582909000106156,800.0,800.0,50.0,0,False,0,down,0.16666666666666666,15,0,0.2736644000397064,0.2736644000397064,0.460322399972938,False,near-rndm,49,8,6,5.0,2,down,1,0
321,2,True,1.3631663999985904,800.0,50.0,33.0,5,False,2,up,0.16666666666666666,76,0.09346910001477227,1.2711762000108138,1.364645300025586,0.3282247999450192,False,near-080,50,1,0,0.625,1,up,16,0
322,2,True,1.8102875999757089,800.0,800.0,50.0,0,False,0,down,0.16666666666666666,15,0,0.27635930001270026,0.27635930001270026,0.4135203999467194,True,near-rndm,50,9,7,5.625,2,down,1,1
323,3,True,1.2737328999792226,800.0,33.0,50.0,0,False,3,up,0.16666666666666666,80,0,1.3282927999971434,1.3282927999971434,0.14898530003847554,False,near-rnd3,50,2,1,1.25,1.0,up,16,0
324,1,True,1.446418999985326,800.0,50.0,33.0,10,False,2,down,0.16666666666666666,62,0.16921379999257624,1.1482166999485344,1.3174304999411106,0.17398469999898225,False,near-160,50,6,3,3.75,2,down,2,0
325,1,True,1.1158218000200577,800.0,50.0,33.0,10,False,2,down,0.16666666666666666,62,0.16623520001303405,1.0266616999870166,1.1928969000000507,0.034156400011852384,False,near-160,51,7,3,4.375,2,down,2,0
326,3,True,0.9210087999817915,800.0,800.0,50.0,0,False,0,down,0.16666666666666666,15,0,0.28741699998499826,0.28741699998499826,0.4220313000259921,True,near-rndm,51,10,8,6.25,2,down,1,1
327,2,True,1.2331760000088252,800.0,33.0,50.0,0,False,3,up,0.16666666666666666,80,0,1.3100548000074923,1.3100548000074923,0.6911989999935031,True,near-rnd3,51,3,2,1.875,1.0,up,16,0
328,2,True,1.4405537000275217,800.0,50.0,33.0,5,False,2,up,0.16666666666666666,76,0.09274240001104772,1.2663060000049882,1.3590484000160359,0.19628029997693375,True,near-080,51,2,1,1.25,1.0,up,16,0
329,1,True,1.174640699988231,800.0,50.0,33.0,10,False,2,down,0.16666666666666666,62,0.17321600002469495,1.039814200019464,1.2130302000441588,0.1729407999664545,True,near-160,52,8,4,5.0,2,down,2,0
330,2,True,0.9340862999670208,800.0,50.0,33.0,5,False,2,up,0.16666666666666666,76,0.09365550003712997,1.263158600020688,1.356814100057818,0.07014049997087568,True,near-080,52,3,2,1.875,1.0,up,16,0
331,4,True,1.0613932000123896,800.0,33.0,50.0,0,False,3,up,0.16666666666666666,80,0,1.3201676000026055,1.3201676000026055,0.1459356999839656,True,near-rnd3,52,4,3,2.5,0.5,up,16,0
332,4,True,0.9716326000052504,800.0,800.0,50.0,0,False,0,down,0.16666666666666666,15,0,0.29348120000213385,0.29348120000213385,0.38652790000196546,True,near-rndm,52,11,9,6.875,2,down,1,1
333,2,True,1.1464574999990873,800.0,50.0,33.0,10,False,2,down,0.16666666666666666,62,0.18283070001052693,1.0369378000032157,1.2197685000137426,0.6710397999850102,False,near-160,53,9,4,5.625,2,down,2,1
334,2,True,1.4449220000533387,800.0,50.0,33.0,5,False,2,up,0.16666666666666666,76,0.09968949999893084,1.270414799975697,1.3701042999746278,0.2102856000419706,True,near-080,53,4,3,2.5,0.5,up,16,0
335,1,True,1.80026699998416,800.0,33.0,50.0,0,False,3,up,0.16666666666666666,80,0,1.2984734999481589,1.2984734999481589,0.3161738999770023,False,near-rnd3,53,5,3,3.125,0.5,up,16,0
336,1,True,1.539792200026568,800.0,800.0,50.0,0,False,0,down,0.16666666666666666,14,0,0.2560127999749966,0.2560127999749966,0.512532300024759,True,near-rndm,53,1,1,0.625,2,down,1,0
337,2,True,1.163946799992118,800.0,800.0,50.0,0,False,0,down,0.16666666666666666,14,0,0.26367820001905784,0.26367820001905784,0.6263030999689363,True,near-rndm,54,2,2,1.25,2,down,1,0
338,2,True,1.1642253999598324,800.0,33.0,50.0,0,False,3,up,0.16666666666666666,80,0,1.3141178999794647,1.3141178999794647,0.060762599983718246,True,near-rnd3,54,6,4,3.75,0.5,up,16,0
339,1,True,1.611346899997443,800.0,50.0,33.0,10,False,2,down,0.16666666666666666,62,0.16891120001673698,1.037484200031031,1.206395400047768,0.28953499998897314,False,near-160,54,10,4,6.25,2,down,2,1
340,2,True,1.1160375000326894,800.0,50.0,33.0,5,False,2,up,0.16666666666666666,76,0.09606210002675653,1.2617101999931037,1.3577723000198603,0.6541562000056729,False,near-080,54,5,3,3.125,0.5,up,16,0
341,2,True,2.0825251000351273,800.0,50.0,33.0,5,False,2,up,0.16666666666666666,76,0.10138039995217696,1.2655750999692827,1.3669554999214597,0.06267760001355782,True,near-080,55,6,4,3.75,0.5,up,16,0
342,1,True,1.608488900004886,800.0,50.0,33.0,10,False,2,up,0.16666666666666666,63,0.16719450004165992,1.0567137000034563,1.2239082000451162,0.07216929999412969,False,near-160,55,1,0,0.625,2,up,1,0
343,2,True,1.0164365000091493,800.0,33.0,50.0,0,False,3,up,0.16666666666666666,80,0,1.3121134999673814,1.3121134999673814,0.18572849995689467,False,near-rnd3,55,7,4,4.375,0.5,up,16,0
344,1,True,1.0736639999668114,800.0,800.0,50.0,0,False,0,down,0.16666666666666666,14,0,0.2553396000294015,0.2553396000294015,0.5472747000167146,True,near-rndm,55,3,3,1.875,2,down,1,0
345,2,True,1.3544404999702238,800.0,50.0,33.0,10,False,2,up,0.16666666666666666,63,0.1766209999914281,1.0705339999985881,1.2471549999900162,0.20028910000110045,True,near-160,56,2,1,1.25,3,up,1,0
346,2,True,0.9203810999752022,800.0,33.0,50.0,0,False,3,up,0.16666666666666666,80,0,1.3135399000020698,1.3135399000020698,0.7011151000042446,False,near-rnd3,56,8,4,5.0,0.5,up,16,0
347,3,True,0.8661481000017375,800.0,800.0,50.0,0,False,0,down,0.16666666666666666,14,0,0.28478119999635965,0.28478119999635965,0.3849023999646306,True,near-rndm,56,4,4,2.5,2,down,1,0
348,2,True,1.134098099952098,800.0,50.0,33.0,5,False,2,up,0.16666666666666666,76,0.0960147000150755,1.2683166000060737,1.3643313000211492,0.34856650000438094,False,near-080,56,7,4,4.375,0.5,up,16,0
349,1,True,1.7413031999603845,800.0,50.0,33.0,5,False,2,up,0.16666666666666666,76,0.08832340000662953,1.3756996000302024,1.464023000036832,0.07177809998393059,True,near-080,57,8,5,5.0,0.5,up,16,0
350,1,True,1.902724199986551,800.0,800.0,50.0,0,False,0,down,0.16666666666666666,14,0,0.256222500000149,0.256222500000149,0.7385095999925397,True,near-rndm,57,5,5,3.125,2,down,1,0
351,5,True,1.3120129000162706,800.0,50.0,33.0,10,False,2,up,0.16666666666666666,63,0.19015959999524057,1.1002357000252232,1.2903953000204638,0.3964018000406213,True,near-160,57,3,2,1.875,3,up,1,0
352,2,True,3.956235200050287,800.0,33.0,50.0,0,False,3,up,0.16666666666666666,80,0,1.3103026000317186,1.3103026000317186,0.24350939999567345,False,near-rnd3,57,1,0,0.625,0.5,up,16,0
353,2,True,1.0073544000042602,800.0,800.0,50.0,0,False,0,down,0.16666666666666666,14,0,0.27900539996335283,0.27900539996335283,0.4987105000182055,True,near-rndm,58,6,6,3.75,2,down,1,0
354,5,True,1.056169600051362,800.0,33.0,50.0,0,False,3,up,0.16666666666666666,80,0,1.3351450999616645,1.3351450999616645,0.2625640000333078,False,near-rnd3,58,2,0,1.25,1.0,up,16,0
355,3,True,1.185542399995029,800.0,50.0,33.0,10,False,2,up,0.16666666666666666,63,0.18109939998248592,1.0729464000323787,1.2540458000148647,0.1824911999865435,True,near-160,58,4,3,2.5,3,up,1,0
356,3,True,1.0611887000268325,800.0,50.0,33.0,5,False,2,up,0.16666666666666666,76,0.1080047000432387,1.2955013000173494,1.4035060000605881,0.18769069999689236,True,near-080,58,9,6,5.625,0.5,up,16,1
357,2,True,0.8963349999976344,800.0,33.0,50.0,0,False,3,up,0.16666666666666666,80,0,1.3158719000057317,1.3158719000057317,0.07691810000687838,False,near-rnd3,59,1,0,0.625,1.0,up,16,0
358,2,True,1.4871272000018507,800.0,50.0,33.0,10,False,2,up,0.16666666666666666,63,0.18175210000481457,1.063460599980317,1.2452126999851316,0.06783860002178699,False,near-160,59,5,3,3.125,3,up,1,0
359,2,True,1.2056421000161208,800.0,50.0,33.0,5,False,2,up,0.16666666666666666,76,0.09477229998447001,1.2641487999935634,1.3589210999780335,0.2924687000340782,True,near-080,59,10,7,6.25,0.5,up,16,1
360,3,True,1.878548700013198,800.0,800.0,50.0,0,False,0,down,0.16666666666666666,12,0,0.2510282000293955,0.2510282000293955,0.4506084999884479,True,near-rndm,59,1,1,0.625,2,down,2,0
361,1,True,1.0679936000378802,800.0,33.0,50.0,0,False,3,up,0.16666666666666666,80,0,1.2999612999847159,1.2999612999847159,0.23780409997561947,True,near-rnd3,60,2,1,1.25,1.0,up,16,0
362,6,True,1.1881007000338286,800.0,50.0,33.0,5,False,2,down,0.16666666666666666,72,0.10939769999822602,1.2609300999902189,1.370327799988445,0.1478779999888502,True,near-080,60,1,1,0.625,0.5,down,4,0
363,1,True,1.7048923999536783,800.0,50.0,33.0,10,False,2,up,0.16666666666666666,63,0.1722271999460645,1.05709969997406,1.2293268999201246,0.31915270001627505,False,near-160,60,6,3,3.75,3,up,1,0
364,4,True,1.0431493000360206,800.0,800.0,50.0,0,False,0,down,0.16666666666666666,12,0,0.34683019999647513,0.34683019999647513,0.3615651999716647,True,near-rndm,60,2,2,1.25,2,down,2,0
365,4,True,1.0014055999927223,800.0,50.0,33.0,5,False,2,down,0.16666666666666666,72,0.11985409999033436,1.2377628000103869,1.3576169000007212,0.24643150001065806,True,near-080,61,2,2,1.25,1,down,4,0
366,1,True,1.3865284000057727,800.0,50.0,33.0,10,False,2,up,0.16666666666666666,63,0.16735960001824424,1.0487606000388041,1.2161202000570484,0.1718875999795273,True,near-160,61,7,4,4.375,3,up,1,0
367,3,True,2.421992599964142,800.0,33.0,50.0,0,False,3,up,0.16666666666666666,80,0,1.3219512000214309,1.3219512000214309,0.03518629999598488,False,near-rnd3,61,3,1,1.875,1.0,up,16,0
368,1,True,1.485848199983593,800.0,800.0,50.0,0,False,0,down,0.16666666666666666,12,0,0.2233117999858223,0.2233117999858223,0.48536789999343455,True,near-rndm,61,3,3,1.875,2,down,2,0
369,2,True,1.0165375999640673,800.0,50.0,33.0,5,False,2,down,0.16666666666666666,72,0.09190090000629425,1.200841700017918,1.2927426000242122,0.2677108999923803,True,near-080,62,3,3,1.875,1,down,4,0
370,2,True,1.7717373000341468,800.0,800.0,50.0,0,False,0,down,0.16666666666666666,12,0,0.23599740001372993,0.23599740001372993,0.46115590003319085,True,near-rndm,62,4,4,2.5,2,down,2,0
371,2,True,1.1548335999832489,800.0,33.0,50.0,0,False,3,up,0.16666666666666666,80,0,1.3185575000243261,1.3185575000243261,0.43270120001398027,False,near-rnd3,62,1,0,0.625,0.5,up,16,0
372,1,True,1.3465498999576084,800.0,50.0,33.0,10,False,2,up,0.16666666666666666,63,0.17446700000436977,1.0519229000201449,1.2263899000245146,0.09590810001827776,False,near-160,62,8,4,5.0,3,up,1,0
373,2,True,1.3442350000259466,800.0,50.0,33.0,5,False,2,down,0.16666666666666666,68,0.09739449998596683,1.143660900008399,1.2410553999943659,0.1826969999819994,True,near-080,63,1,1,0.625,1,down,4,0
374,2,True,1.3736790999537334,800.0,800.0,50.0,0,False,0,down,0.16666666666666666,12,0,0.22960680001415312,0.22960680001415312,0.6748061999678612,True,near-rndm,63,5,5,3.125,2,down,2,0
375,1,True,1.565993800002616,800.0,33.0,50.0,0,False,3,up,0.16666666666666666,80,0,1.304102599970065,1.304102599970065,0.16856710001593456,False,near-rnd3,63,2,0,1.25,1.0,up,16,0
376,1,True,1.800000999995973,800.0,800.0,50.0,0,False,0,down,0.16666666666666666,12,0,0.2227594000287354,0.2227594000287354,0.6130279999924824,True,near-rndm,64,6,6,3.75,2,down,2,0
377,2,True,1.3864350999938324,800.0,33.0,50.0,0,False,3,up,0.16666666666666666,80,0,1.3070339999976568,1.3070339999976568,0.2995340999914333,False,near-rnd3,64,1,0,0.625,1.0,up,16,0
378,1,True,1.2405648000421934,800.0,50.0,33.0,5,False,2,down,0.16666666666666666,68,0.08990179997636005,1.1276999000110663,1.2176016999874264,0.2992866999702528,False,near-080,64,2,1,1.25,1,down,4,0
379,3,True,1.9439576999866404,800.0,50.0,33.0,5,False,2,down,0.16666666666666666,68,0.10472780000418425,1.1465202000108548,1.251248000015039,0.13529010000638664,False,near-080,65,3,1,1.875,1,down,4,0
380,2,True,1.6536709000356495,800.0,800.0,50.0,0,False,0,down,0.16666666666666666,8,0,0.1710227999719791,0.1710227999719791,0.6169382000225596,True,near-rndm,65,1,1,0.625,2,down,4,0
381,4,True,1.271988499967847,800.0,33.0,50.0,0,False,3,up,0.16666666666666666,80,0,1.3380710000055842,1.3380710000055842,0.16550659999484196,True,near-rnd3,65,2,1,1.25,1.0,up,16,0
382,3,True,1.0581787000410259,800.0,800.0,50.0,0,False,0,down,0.16666666666666666,8,0,0.17584939999505877,0.17584939999505877,0.5957825000514276,True,near-rndm,66,2,2,1.25,1,down,4,0
383,2,True,1.2102575000026263,800.0,50.0,33.0,5,False,2,down,0.16666666666666666,68,0.10143179999431595,1.1479768000426702,1.2494086000369862,0.29683740000473335,True,near-080,66,4,2,2.5,1,down,4,0
384,5,True,1.9601952999946661,800.0,33.0,50.0,0,False,3,up,0.16666666666666666,80,0,1.3482207999913953,1.3482207999913953,0.5708779000560753,True,near-rnd3,66,3,2,1.875,1.0,up,16,0
385,1,True,2.382288000022527,800.0,50.0,33.0,5,False,2,down,0.16666666666666666,68,0.09515710000414401,1.129363900050521,1.224521000054665,0.32861419999971986,False,near-080,67,5,2,3.125,1,down,4,0
386,3,True,0.8859151999931782,800.0,33.0,50.0,0,False,3,up,0.16666666666666666,80,0,1.3198653000290506,1.3198653000290506,0.20697780000045896,True,near-rnd3,67,4,3,2.5,0.5,up,16,0
387,3,True,0.9631634000106715,800.0,800.0,50.0,0,False,0,down,0.16666666666666666,8,0,0.17407240002648905,0.17407240002648905,0.7139134999597445,True,near-rndm,67,3,3,1.875,1,down,4,0
388,1,True,0.9275264000170864,800.0,800.0,50.0,0,False,0,down,0.16666666666666666,0,0,0.024571799964178354,0.024571799964178354,0.6910414000158198,True,near-rndm,68,1,1,0.625,1,down,8,0
389,3,True,1.4202052000327967,800.0,33.0,50.0,0,False,3,up,0.16666666666666666,80,0,1.3274205999914557,1.3274205999914557,0.05144880001898855,False,near-rnd3,68,5,3,3.125,0.5,up,16,0
390,3,True,1.2836245999787934,800.0,50.0,33.0,5,False,2,up,0.16666666666666666,70,0.10889189998852089,1.1804698000196368,1.2893617000081576,0.24325840000528842,False,near-080,68,1,0,0.625,1,up,2,0
391,3,True,1.2261546000372618,800.0,33.0,50.0,0,False,3,up,0.16666666666666666,80,0,1.3172247999464162,1.3172247999464162,0.08417039999039844,True,near-rnd3,69,6,4,3.75,0.5,up,16,0
392,2,True,1.1868845999706537,800.0,50.0,33.0,5,False,2,up,0.16666666666666666,70,0.10116889997152612,1.1681899999966845,1.2693588999682106,0.06871389999287203,False,near-080,69,2,0,1.25,2,up,2,0
393,1,True,1.6508882999769412,800.0,800.0,50.0,0,False,0,down,0.16666666666666666,0,0,0.025205600017216057,0.025205600017216057,0.8621169000398368,True,near-rndm,69,2,2,1.25,1,down,8,0
394,1,True,1.3293136999709532,800.0,800.0,50.0,0,False,0,down,0.16666666666666666,0,0,0.02499329997226596,0.02499329997226596,0.6824198000249453,False,near-rndm,70,3,2,1.875,1,down,8,0
395,2,True,1.0044265000033192,800.0,50.0,33.0,5,False,2,up,0.16666666666666666,70,0.09468929999275133,1.1665253000101075,1.2612146000028588,0.1113803000189364,False,near-080,70,3,0,1.875,2,up,2,0
396,2,True,0.9504965999512933,800.0,33.0,50.0,0,False,3,up,0.16666666666666666,80,0,1.3158453999785706,1.3158453999785706,0.026902100013103336,False,near-rnd3,70,7,4,4.375,0.5,up,16,0
397,2,True,0.9942307000164874,800.0,800.0,50.0,0,False,0,down,0.16666666666666666,0,0,0.033905700023751706,0.033905700023751706,0.747451999981422,False,near-rndm,71,4,2,2.5,1,down,8,0
398,4,True,1.3664186000241898,800.0,50.0,33.0,5,False,2,up,0.16666666666666666,70,0.11552489997120574,1.2816684999852441,1.3971933999564499,0.21891440002946183,False,near-080,71,4,0,2.5,2,up,2,0
399,2,True,0.9063781999866478,800.0,33.0,50.0,0,False,3,up,0.16666666666666666,80,0,1.3088781000114977,1.3088781000114977,0.07741460000397637,False,near-rnd3,71,8,4,5.0,0.5,up,16,0
400,2,True,1.8676708999555558,800.0,33.0,50.0,0,False,3,up,0.16666666666666666,80,0,1.3106062000151724,1.3106062000151724,0.27366529998835176,True,near-rnd3,72,1,1,0.625,0.5,up,16,0
401,1,True,2.0561730000190437,800.0,50.0,33.0,5,False,2,up,0.16666666666666666,72,0.09457750001456589,1.202063700009603,1.296641200024169,0.036158000002615154,True,near-080,72,1,1,0.625,2,up,2,0
402,4,True,1.1507645000237972,800.0,800.0,50.0,0,False,0,down,0.16666666666666666,0,0,0.05008299998007715,0.05008299998007715,0.6891640000394545,False,near-rndm,72,5,2,3.125,1,down,8,0
403,2,True,1.081919200019911,800.0,50.0,33.0,5,False,2,up,0.16666666666666666,72,0.09748359996592626,1.2295880000456236,1.32707160001155,0.257498899998609,True,near-080,73,2,2,1.25,2,up,2,0
404,4,True,0.9907433000043966,800.0,800.0,50.0,0,False,0,up,0.16666666666666666,4,0,0.11707199999364093,0.11707199999364093,0.628913399996236,False,near-rndm,73,1,0,0.625,1,up,4,0
405,2,True,0.8641040999791585,800.0,33.0,50.0,0,False,3,up,0.16666666666666666,80,0,1.3146640000049956,1.3146640000049956,0.17512490000808612,False,near-rnd3,73,2,1,1.25,1.0,up,16,0
406,2,True,0.8764851000159979,800.0,33.0,50.0,0,False,3,up,0.16666666666666666,80,0,1.3099789000116289,1.3099789000116289,0.18539549998240545,True,near-rnd3,74,3,2,1.875,1.0,up,16,0
407,2,True,0.8212380000040866,800.0,800.0,50.0,0,False,0,up,0.16666666666666666,4,0,0.10827520000748336,0.10827520000748336,0.6169788000406697,True,near-rndm,74,2,1,1.25,1,up,4,0
408,1,True,1.0720054999692366,800.0,50.0,33.0,5,False,2,up,0.16666666666666666,72,0.09216600004583597,1.1997953000245616,1.2919613000703976,0.08917269995436072,False,near-080,74,3,2,1.875,2,up,2,0
409,3,True,1.056695299979765,800.0,33.0,50.0,0,False,3,up,0.16666666666666666,80,0,1.3225448000011966,1.3225448000011966,0.051405100035481155,False,near-rnd3,75,4,2,2.5,0.5,up,16,0
410,2,True,1.3483555000275373,800.0,50.0,33.0,5,False,2,up,0.16666666666666666,72,0.09367470000870526,1.2019181000068784,1.2955928000155836,0.044810299994423985,False,near-080,75,4,2,2.5,2,up,2,0
411,1,True,1.4172969000064768,800.0,800.0,50.0,0,False,0,up,0.16666666666666666,4,0,0.09492110001156107,0.09492110001156107,0.7645876000169665,True,near-rndm,75,3,2,1.875,1,up,4,0
412,3,True,1.031995100027416,800.0,800.0,50.0,0,False,0,up,0.16666666666666666,4,0,0.11059499997645617,0.11059499997645617,0.7997043000068516,False,near-rndm,76,4,2,2.5,1,up,4,0
413,3,True,0.81016140000429,800.0,50.0,33.0,5,False,2,up,0.16666666666666666,72,0.11011469998629764,1.22230160003528,1.3324163000215776,0.24956629995722324,False,near-080,76,5,2,3.125,2,up,2,0
414,3,True,1.1259431999642402,800.0,33.0,50.0,0,False,3,up,0.16666666666666666,80,0,1.335905999992974,1.335905999992974,0.2341205999837257,True,near-rnd3,76,5,3,3.125,0.5,up,16,0
415,1,True,1.1665865000104532,800.0,800.0,50.0,0,False,0,up,0.16666666666666666,4,0,0.0929081000504084,0.0929081000504084,0.5666636999812908,True,near-rndm,77,5,3,3.125,1,up,4,0
416,1,True,1.1002283000270836,800.0,33.0,50.0,0,False,3,up,0.16666666666666666,80,0,1.2984254999901168,1.2984254999901168,0.1494943000143394,False,near-rnd3,77,6,3,3.75,0.5,up,16,0
417,1,True,2.2843716999632306,800.0,50.0,33.0,5,False,2,up,0.16666666666666666,72,0.09154570003738627,1.1976485999766737,1.28919430001406,0.43566449999343604,True,near-080,77,6,3,3.75,2,up,2,0
418,1,True,1.6583208999945782,800.0,800.0,50.0,0,False,0,up,0.16666666666666666,4,0,0.08963500004028901,0.08963500004028901,0.6422481999616139,False,near-rndm,78,6,3,3.75,1,up,4,0
419,1,True,1.5003101999755017,800.0,33.0,50.0,0,False,3,up,0.16666666666666666,80,0,1.3038244000053965,1.3038244000053965,0.09585610002977774,False,near-rnd3,78,1,0,0.625,0.5,up,16,0
420,2,True,1.198243500024546,800.0,50.0,33.0,5,False,2,up,0.16666666666666666,72,0.09915819996967912,1.1965135000064038,1.295671699976083,0.20796569995582104,True,near-080,78,7,4,4.375,2,up,2,0
421,2,True,1.2825389999779873,800.0,50.0,33.0,5,False,2,up,0.16666666666666666,72,0.09388029994443059,1.1981265000067651,1.2920067999511957,0.18580109998583794,False,near-080,79,8,4,5.0,2,up,2,0
422,1,True,1.4384966000216082,800.0,800.0,50.0,0,False,0,up,0.16666666666666666,4,0,0.09372270002495497,0.09372270002495497,0.8481773000094108,False,near-rndm,79,7,3,4.375,1,up,4,0
423,1,True,1.1843386000255123,800.0,33.0,50.0,0,False,3,up,0.16666666666666666,80,0,1.2981994999572635,1.2981994999572635,0.33642690000124276,False,near-rnd3,79,2,0,1.25,1.0,up,16,0
424,2,True,1.0094548999913968,800.0,33.0,50.0,0,False,3,up,0.16666666666666666,80,0,1.3050343999639153,1.3050343999639153,0.23575210000853986,True,near-rnd3,80,1,1,0.625,1.0,up,16,0
425,2,True,1.3913301000138745,800.0,800.0,50.0,0,False,0,up,0.16666666666666666,8,0,0.210403100005351,0.210403100005351,0.7805959999677725,False,near-rndm,80,1,0,0.625,1,up,4,0
426,2,True,1.090721799992025,800.0,50.0,33.0,5,False,2,up,0.16666666666666666,72,0.09545279998565093,1.1999666999909095,1.2954194999765605,0.243936599988956,True,near-080,80,9,5,5.625,2,up,2,1
427,1,True,1.2839216000284068,800.0,800.0,50.0,0,False,0,up,0.16666666666666666,8,0,0.15541509998729452,0.15541509998729452,0.6620869000325911,False,near-rndm,81,2,0,1.25,1,up,4,0
428,4,True,0.9431565999984741,800.0,50.0,33.0,5,False,2,up,0.16666666666666666,72,0.11409510002704337,1.2126363999559544,1.3267314999829978,0.3314253000426106,True,near-080,81,10,6,6.25,2,up,2,1
429,2,True,0.9421085000503808,800.0,33.0,50.0,0,False,3,up,0.16666666666666666,80,0,1.3090262999758124,1.3090262999758124,0.2700207000016235,False,near-rnd3,81,2,1,1.25,1.0,up,16,0
430,3,True,0.9912609999882989,800.0,33.0,50.0,0,False,3,up,0.16666666666666666,80,0,1.3170067999744788,1.3170067999744788,0.14617419999558479,False,near-rnd3,82,3,1,1.875,1.0,up,16,0
431,3,True,1.055390499997884,800.0,50.0,33.0,5,False,2,up,0.16666666666666666,72,0.09621200000401586,1.2212457999703474,1.3174577999743633,0.3074927999987267,False,near-080,82,11,6,6.875,2,up,2,1
432,4,True,0.9707749999943189,800.0,800.0,50.0,0,False,0,up,0.16666666666666666,12,0,0.24662499997066334,0.24662499997066334,0.42905189999146387,True,near-rndm,82,1,1,0.625,1,up,4,0
433,1,True,1.16770169994561,800.0,800.0,50.0,0,False,0,up,0.16666666666666666,12,0,0.22450840001692995,0.22450840001692995,0.5140956999966875,True,near-rndm,83,2,2,1.25,1,up,4,0
434,4,True,1.0370260999770835,800.0,50.0,33.0,5,False,2,up,0.16666666666666666,72,0.10840409999946132,1.2342918000067584,1.3426959000062197,0.19503100001020357,False,near-080,83,12,6,7.5,2,up,2,1
435,2,True,1.6026869000052102,800.0,33.0,50.0,0,False,3,up,0.16666666666666666,80,0,1.3141716999816708,1.3141716999816708,0.0725906000006944,False,near-rnd3,83,1,0,0.625,0.5,up,16,0
436,1,True,1.185482500004582,800.0,800.0,50.0,0,False,0,up,0.16666666666666666,12,0,0.22035060002235696,0.22035060002235696,0.569467999972403,True,near-rndm,84,3,3,1.875,1,up,4,0
437,3,True,1.328051799966488,800.0,33.0,50.0,0,False,3,up,0.16666666666666666,80,0,1.3228009000304155,1.3228009000304155,0.08118009997997433,False,near-rnd3,84,2,0,1.25,1.0,up,16,0
438,3,True,1.2078260999987833,800.0,50.0,33.0,5,False,2,up,0.16666666666666666,72,0.1095245000324212,1.2269393000169657,1.336463800049387,0.09997059998568147,True,near-080,84,13,7,8.125,2,up,2,1
439,4,True,1.3702069999999367,800.0,33.0,50.0,0,False,3,up,0.16666666666666666,80,0,1.3296786999562755,1.3296786999562755,0.4926615000003949,False,near-rnd3,85,1,0,0.625,1.0,up,16,0
440,3,True,1.423793800000567,800.0,50.0,33.0,5,False,2,up,0.16666666666666666,72,0.10811380000086501,1.2106762999901548,1.3187900999910198,0.2995084999711253,False,near-080,85,14,7,8.75,2,up,2,1
441,1,True,1.598513200005982,800.0,800.0,50.0,0,False,0,down,0.16666666666666666,10,0,0.18760189996100962,0.18760189996100962,0.5855104000074789,True,near-rndm,85,1,1,0.625,1,down,2,0
442,3,True,1.1246506000170484,800.0,50.0,33.0,5,False,2,up,0.16666666666666666,72,0.10300920001463965,1.217554899980314,1.3205640999949537,0.31322190002538264,True,near-080,86,15,8,9.375,2,up,2,1
443,1,True,2.075682800030336,800.0,33.0,50.0,0,False,3,up,0.16666666666666666,80,0,1.303605700028129,1.303605700028129,0.25255199999082834,True,near-rnd3,86,2,1,1.25,1.0,up,16,0
444,1,True,1.2709647999727167,800.0,800.0,50.0,0,False,0,down,0.16666666666666666,10,0,0.1869730000034906,0.1869730000034906,0.8394022000138648,False,near-rndm,86,2,1,1.25,2,down,2,0
445,3,True,1.292447899992112,800.0,50.0,33.0,5,False,2,up,0.16666666666666666,72,0.1009038999909535,1.2059910999960266,1.30689499998698,0.050621300004422665,False,near-080,87,16,8,10.0,2,up,2,1
446,2,True,1.4367873999872245,800.0,33.0,50.0,0,False,3,up,0.16666666666666666,80,0,1.30893699999433,1.30893699999433,0.19767999998293817,True,near-rnd3,87,3,2,1.875,1.0,up,16,0
447,3,True,1.2003776999772526,800.0,800.0,50.0,0,False,0,down,0.16666666666666666,10,0,0.21517889999086037,0.21517889999086037,0.41919980000238866,True,near-rndm,87,3,2,1.875,2,down,2,0
448,3,True,2.0221296999952756,800.0,800.0,50.0,0,False,0,down,0.16666666666666666,10,0,0.20148210000479594,0.20148210000479594,0.6615611999877729,True,near-rndm,88,4,3,2.5,2,down,2,0
449,3,True,1.1635685000219382,800.0,33.0,50.0,0,False,3,up,0.16666666666666666,80,0,1.3195998999872245,1.3195998999872245,0.2038884999928996,True,near-rnd3,88,4,3,2.5,0.5,up,16,0
450,2,True,1.0137020999682136,800.0,50.0,33.0,5,False,2,up,0.16666666666666666,72,0.09111999999731779,1.1983569000149146,1.2894769000122324,0.46044009999604896,False,near-080,88,17,8,10.625,2,up,2,2
451,2,True,1.0600934000103734,800.0,50.0,33.0,5,False,2,up,0.16666666666666666,73,0.09937459998764098,1.2251825000275858,1.3245571000152268,0.10995309997815639,True,near-080,89,1,1,0.625,2,up,1,0
452,2,True,0.9156931000179611,800.0,800.0,50.0,0,False,0,down,0.16666666666666666,10,0,0.20376689999829978,0.20376689999829978,0.6822178000002168,False,near-rndm,89,5,3,3.125,2,down,2,0
453,3,True,0.691456799977459,800.0,33.0,50.0,0,False,3,up,0.16666666666666666,80,0,1.3113191000302322,1.3113191000302322,0.08341590000782162,True,near-rnd3,89,5,4,3.125,0.5,up,16,0
454,2,True,1.1512768000247888,800.0,800.0,50.0,0,False,0,down,0.16666666666666666,10,0,0.19920029997592792,0.19920029997592792,0.4509133000392467,True,near-rndm,90,6,4,3.75,2,down,2,0
455,3,True,1.0336125000030734,800.0,50.0,33.0,5,False,2,up,0.16666666666666666,73,0.10536960000172257,1.2275657000136562,1.3329353000153787,0.1007188999792561,True,near-080,90,2,2,1.25,3,up,1,0
456,4,True,1.0733033000142314,800.0,33.0,50.0,0,False,3,down,0.16666666666666666,72,0,1.2006210999679752,1.2006210999679752,0.22016359999543056,False,near-rnd3,90,1,0,0.625,0.5,down,8,0
457,2,True,0.7818464000010863,800.0,50.0,33.0,5,False,2,up,0.16666666666666666,73,0.09869899996556342,1.2161396000301465,1.31483859999571,0.21469180000713095,False,near-080,91,3,2,1.875,3,up,1,0
458,4,True,1.176003300002776,800.0,33.0,50.0,0,False,3,down,0.16666666666666666,72,0,1.1940037000458688,1.1940037000458688,0.10640399996191263,False,near-rnd3,91,2,0,1.25,1,down,8,0
459,4,True,0.6247574000153691,800.0,800.0,50.0,0,False,0,down,0.16666666666666666,10,0,0.21738020004704595,0.21738020004704595,0.48315349995391443,True,near-rndm,91,7,5,4.375,2,down,2,0
460,2,True,3.9333924999809824,800.0,800.0,50.0,0,False,0,down,0.16666666666666666,10,0,0.19748580001760274,0.19748580001760274,0.6079729999764822,False,near-rndm,92,8,5,5.0,2,down,2,0
461,3,True,1.04657840001164,800.0,50.0,33.0,5,False,2,up,0.16666666666666666,73,0.10988880001241341,1.2237985000247136,1.333687300037127,0.10359449998941272,False,near-080,92,4,2,2.5,3,up,1,0
462,6,True,1.0524044000194408,800.0,33.0,50.0,0,False,3,up,0.16666666666666666,76,0,1.3585671999608167,1.3585671999608167,0.06165869999676943,True,near-rnd3,92,1,1,0.625,1,up,4,0
463,1,True,0.8747972999699414,800.0,33.0,50.0,0,False,3,up,0.16666666666666666,76,0,1.2366433999850415,1.2366433999850415,0.029093799996189773,False,near-rnd3,93,2,1,1.25,1,up,4,0
464,3,True,1.0508983000181615,800.0,50.0,33.0,5,False,2,up,0.16666666666666666,73,0.10802779998630285,1.2387387999915518,1.3467665999778546,0.07723490003263578,True,near-080,93,5,3,3.125,3,up,1,0
465,2,True,1.116813300002832,800.0,800.0,50.0,0,False,0,down,0.16666666666666666,10,0,0.3270763999898918,0.3270763999898918,0.8172121000243351,False,near-rndm,93,9,5,5.625,2,down,2,1
466,1,True,0.8282360999728553,800.0,33.0,50.0,0,False,3,up,0.16666666666666666,76,0,1.2370397000340745,1.2370397000340745,0.18414640001719818,False,near-rnd3,94,3,1,1.875,1,up,4,0
467,3,True,1.0808649999671616,800.0,800.0,50.0,0,False,0,down,0.16666666666666666,10,0,0.21930599998449907,0.21930599998449907,0.5154332999954931,True,near-rndm,94,10,6,6.25,2,down,2,1
468,4,True,1.1703689999994822,800.0,50.0,33.0,5,False,2,up,0.16666666666666666,73,0.11261449998710304,1.2417750000022352,1.3543894999893382,0.26742609997745603,True,near-080,94,6,4,3.75,3,up,1,0
469,3,True,0.9541629999876022,800.0,33.0,50.0,0,False,3,up,0.16666666666666666,76,0,1.2582111000083387,1.2582111000083387,0.22339399997144938,False,near-rnd3,95,4,1,2.5,1,up,4,0
470,1,True,2.217258699995,800.0,50.0,33.0,5,False,2,up,0.16666666666666666,73,0.0941465999931097,1.2136441000038758,1.3077906999969855,0.26837470004102215,False,near-080,95,7,4,4.375,3,up,1,0
471,2,True,0.6254147000145167,800.0,800.0,50.0,0,False,0,down,0.16666666666666666,10,0,0.1985526999924332,0.1985526999924332,0.46487809997051954,True,near-rndm,95,11,7,6.875,2,down,2,1
472,3,True,0.9884083000360988,800.0,800.0,50.0,0,False,0,down,0.16666666666666666,10,0,0.21694379998371005,0.21694379998371005,0.533985800051596,True,near-rndm,96,12,8,7.5,2,down,2,1
473,2,True,0.8521112000453286,800.0,33.0,50.0,0,False,3,up,0.16666666666666666,80,0,1.3105278000002727,1.3105278000002727,0.1419084999943152,False,near-rnd3,96,1,0,0.625,1,up,4,0
474,4,True,0.8610037000034936,800.0,50.0,33.0,5,False,2,up,0.16666666666666666,73,0.11697449994971976,1.2255544000072405,1.3425288999569602,0.24559509998653084,True,near-080,96,8,5,5.0,3,up,1,0
